index,source_timestamp,receipt_uptime,sensor_location,user_acceleration_x,user_acceleration_y,user_acceleration_z,gravity_x,gravity_y,gravity_z,rotation_rate_x,rotation_rate_y,rotation_rate_z,quaternion_w,quaternion_x,quaternion_y,quaternion_z,roll,pitch,yaw
9551,945710.5667921364,945710.6007326251,right,0.1100073903799057,-0.06747052818536758,0.05248824134469032,-0.26434561610221863,0.4200035631656647,0.8681696057319641,0.08206471055746078,0.17604875564575195,-0.1689954698085785,-0.09352181240316748,0.7773967761947354,-0.5742290070892379,0.2391000954895102,-2.8460253781564058,-0.4334492117474213,1.9347228201267117
9552,945710.5867921364,945710.6060862917,right,0.11351430416107178,-0.07502919435501099,0.06396108865737915,-0.26801612973213196,0.42178305983543396,0.8661791682243347,0.17397980391979218,0.1881875842809677,-0.08568229526281357,-0.09338345471056765,0.7774573327115363,-0.5732796618560198,0.2412258390681491,-2.841513233647516,-0.4354109435204482,1.9377037307125176
9553,945710.6067921364,945710.6388178334,right,0.12000644207000732,-0.08309128880500793,0.05353338271379471,-0.2707701027393341,0.4236674904823303,0.8644012212753296,0.1587689220905304,0.15919281542301178,-0.02937912940979004,-0.093438465715073,0.7772553481927186,-0.5727779998965592,0.24304038845077625,-2.838028590071108,-0.4374902986735574,1.93941292512044
9554,945710.6267921365,945710.6627331667,right,0.10729171335697174,-0.08575218915939331,0.032600414007902145,-0.2725592851638794,0.42545780539512634,0.8629583120346069,0.09715639054775238,0.10696931183338165,0.04730042442679405,-0.09360821193953872,0.7768064466275448,-0.5727571870179805,0.2444551236692152,-2.8356653169497554,-0.4394676751582759,1.939752482837797
9555,945710.6467921365,945710.6648904583,right,0.0854293704032898,-0.08186277747154236,0.01079648733139038,-0.27339932322502136,0.42678624391555786,0.8620360493659973,0.11081171035766602,0.10096438974142075,0.14011378586292267,-0.09373941300398694,0.776175750694259,-0.5732095133263064,0.2453463399950435,-2.834472440930326,-0.4409361159821043,1.9387328656279135
9556,945710.6667921365,945710.6840184584,right,0.07534798234701157,-0.08894434571266174,-0.02407282218337059,-0.27361682057380676,0.42819923162460327,0.8612662553787231,-0.01445228885859251,0.04484787955880165,0.15636903047561646,-0.09394909680972821,0.7752414665095314,-0.5741373536297611,0.24604978000625957,-2.8339854887460723,-0.4424991141553502,1.9364007599608306
9557,945710.6867921365,945710.7060637918,right,0.07683895528316498,-0.09364087879657745,-0.021524963900446892,-0.27290430665016174,0.43068841099739075,0.8602504134178162,-0.07829836010932922,0.004962756298482418,0.21900413930416107,-0.0946659408885035,0.7737116507157082,-0.5757563786889337,0.24680586056121145,-2.8343971235638765,-0.4452553853645715,1.9321676805960855
9558,945710.7067921365,945710.7234165,right,0.048926934599876404,-0.09547335654497147,0.011798243969678879,-0.270371675491333,0.4330349564552307,0.8598722219467163,0.003472294192761183,-0.023094743490219116,0.3583109974861145,-0.09567465118833379,0.7718532721962583,-0.5780817778647241,0.24680015779056053,-2.8369484383373913,-0.4478570604496076,1.9258266028525648
9559,945710.7267921366,945710.7447041668,right,0.0004463285149540752,-0.0967717319726944,0.027643820270895958,-0.26549670100212097,0.43577978014945984,0.8600044846534729,0.10713627189397812,-0.06907503306865692,0.5097787380218506,-0.09731290633561002,0.769492859596127,-0.5812769526584567,0.24602436690799234,-2.8421594753588773,-0.45090444580142647,1.916858466841062
9560,945710.7467921366,945710.7646634583,right,-0.04761948063969612,-0.0971851795911789,0.027924558147788048,-0.2582342028617859,0.4406004846096039,0.8597595691680908,0.21053114533424377,-0.0603724904358387,0.632060170173645,-0.10019692707116921,0.7661379056009681,-0.5855872379779639,0.24511389398492908,-2.849809167589518,-0.456267452881354,1.9045687939906495
9561,945710.7667921366,945710.7835202084,right,-0.10031387954950333,-0.09334082156419754,-0.009309238754212856,-0.24962298572063446,0.4447260797023773,0.8601784706115723,0.10821966826915741,-0.12958449125289917,0.6871531009674072,-0.10311589699696574,0.7626447461366118,-0.5903068199010303,0.2434703789242576,-2.859151793232157,-0.46086836980989193,1.8908703722354483
9562,945710.7867921366,945710.8249072917,right,-0.1291327178478241,-0.08626914769411087,-0.049050722271203995,-0.24123747646808624,0.4489842653274536,0.8603590726852417,0.003481561318039894,-0.09323722124099731,0.7086923122406006,-0.10589284802195004,0.7586969449690919,-0.5954480482467573,0.24208918595883966,-2.868220993160572,-0.46562821735103016,1.8759519449212292
9563,945710.8067921366,945710.8259480834,right,-0.11017140001058578,-0.0707303136587143,-0.07308810949325562,-0.23475080728530884,0.45227307081222534,0.8604307770729065,-0.09979297965765,0.014541042037308216,0.6407495737075806,-0.10766061737929407,0.7546207399520644,-0.6006353628913043,0.24123386030984428,-2.875245727545944,-0.4693122967877991,1.8610977356971814
9564,945710.8267921366,945710.8448027917,right,-0.0577133372426033,-0.056823622435331345,-0.07909353822469711,-0.23049888014793396,0.4537562429904938,0.8607993721961975,-0.1687057614326477,0.10685164481401443,0.6116589307785034,-0.10802387480190379,0.7506791237146032,-0.605706575265688,0.2406888726359527,-2.879957775342728,-0.4709759558591559,1.8468669837834246
9565,945710.8467921367,945710.8647177084,right,-0.024376939982175827,-0.02993852086365223,-0.055051080882549286,-0.22892150282859802,0.4533328413963318,0.8614429235458374,-0.1825612336397171,0.2818167805671692,0.557700514793396,-0.10684049212128392,0.7469927756283502,-0.6105105689004606,0.24054837447059274,-2.8818539721342145,-0.4705008846404687,1.8337892389739368
9566,945710.8667921367,945710.8845084168,right,0.014896679669618607,-0.009393708780407906,-0.026246260851621628,-0.23146960139274597,0.4513736069202423,0.8617908358573914,-0.21739985048770905,0.4551679193973541,0.40110915899276733,-0.10383110674103292,0.7435632715044608,-0.6148243450141285,0.24150277165207915,-2.87919434058852,-0.46830402990141734,1.8227083139630318
9567,945710.8867921367,945710.9303145417,right,0.04252731427550316,0.009097132831811905,0.003756467252969742,-0.23665553331375122,0.4486876130104065,0.8617850542068481,-0.2332574874162674,0.5035965442657471,0.3686683773994446,-0.09977075859964217,0.7403247996864769,-0.6187177254710159,0.24321433265779333,-2.873588423626564,-0.4652962441308295,1.8131423598705576
9568,945710.9067921367,945710.9308218751,right,0.037092141807079315,0.020111173391342163,0.02285648137331009,-0.24110914766788483,0.44698193669319153,0.861436665058136,-0.18070478737354279,0.39380404353141785,0.46780070662498474,-0.09628379662581582,0.7368622947285337,-0.6226975094614986,0.24497134995324762,-2.8686843515029286,-0.4633885797166394,1.8031143108381478
9569,945710.9267921367,945710.9534881667,right,0.0322565920650959,0.018657734617590904,0.025920547544956207,-0.24164557456970215,0.44769489765167236,0.860916256904602,-0.06606139242649078,0.1978083848953247,0.6176556944847107,-0.09485690375057644,0.7328353072528317,-0.6272243890486517,0.24605698234043064,-2.8679497872663346,-0.46418574841873156,1.7908482651647657
9570,945710.9467921368,945710.9647633334,right,0.0473998598754406,0.008505948819220066,0.01490127295255661,-0.23732319474220276,0.45126503705978394,0.8602542281150818,0.07325927168130875,0.01921772211790085,0.7429190874099731,-0.09598536764575397,0.7282199255393733,-0.6323153936175568,0.2462916991559449,-2.8724126981490095,-0.4681823510250172,1.7761013311959113
9571,945710.9667921368,945710.9848100834,right,0.07223507761955261,-0.005801530554890633,-0.0006141288904473186,-0.22957372665405273,0.45733726024627686,0.8591501116752625,0.20153774321079254,-0.07951752841472626,0.7953391671180725,-0.09917820807316764,0.7232294046890348,-0.6375846582590762,0.24614771939284208,-2.8804829878358325,-0.4749986109049953,1.7600497624001576
9572,945710.9867921368,945711.0059265834,right,0.09640026837587357,-0.02026337757706642,-0.012821136973798275,-0.22073045372962952,0.465094655752182,0.8573011755943298,0.3014267683029175,-0.08623035997152328,0.7588681578636169,-0.10348073533814486,0.7181842536753076,-0.6425432887945922,0.24625432618219478,-2.8895947959638524,-0.4837414677876073,1.7443379360726472
9573,945711.0067921368,945711.0271447084,right,0.11492202430963516,-0.03365156054496765,-0.01660032756626606,-0.2129075676202774,0.47390568256378174,0.854449450969696,0.3855210542678833,-0.031053630635142326,0.66011643409729,-0.10805202784037295,0.7133865760650893,-0.6467644324355777,0.24718420193530635,-2.8973906472448574,-0.49372082902033254,1.7305077898930517
9574,945711.0267921368,945711.0526159167,right,0.12117698788642883,-0.05064955726265907,-0.020990531891584396,-0.20703057944774628,0.4837570786476135,0.8503633141517639,0.47164276242256165,0.020313000306487083,0.5608579516410828,-0.11262206890754267,0.7089687523202124,-0.6500345160887037,0.24926827446919095,-2.902777622929949,-0.5049423888302559,1.7193567957643212
9575,945711.0467921369,945711.0648084584,right,0.11948713660240173,-0.06577759236097336,-0.018120156601071358,-0.2021608203649521,0.4948931038379669,0.8451105952262878,0.5893598198890686,0.010612057521939278,0.5176447629928589,-0.11755304791604765,0.7048227250792573,-0.652518297943085,0.2522418995959612,-2.906792815098337,-0.5177117242798898,1.7102682324659004
9576,945711.0667921369,945711.0858740418,right,0.11048874258995056,-0.08234439790248871,-0.019977688789367676,-0.1962938755750656,0.507978618144989,0.8387050628662109,0.7094522714614868,-0.08306650072336197,0.5411216020584106,-0.12369445270449274,0.7006602687005088,-0.6545438262586348,0.2556307045519793,-2.9116870413461364,-0.5328364064091591,1.7018277120069294
9577,945711.0867921369,945711.1250047084,right,0.11217834800481796,-0.08486156910657883,-0.01170584000647068,-0.18824559450149536,0.5226973295211792,0.8314750790596008,0.7947048544883728,-0.18918199837207794,0.554082453250885,-0.13130588752085476,0.6964380968532249,-0.656286088971648,0.258884355454794,-2.9189466638823625,-0.5500117512179553,1.6932038963524365
9578,945711.1067921369,945711.1256470834,right,0.12574662268161774,-0.07125470042228699,0.018515553325414658,-0.17890475690364838,0.5379529595375061,0.8237713575363159,0.8154751062393188,-0.2348148673772812,0.49321645498275757,-0.13973028379725225,0.6924126724235309,-0.6576095295570078,0.26189619631743866,-2.927736150050438,-0.56800680767175,1.6849858979012333
9579,945711.1267921369,945711.1553979584,right,0.13480816781520844,-0.05315743386745453,0.05740533769130707,-0.17045660316944122,0.552410364151001,0.8159579038619995,0.7612841129302979,-0.21343883872032166,0.34782618284225464,-0.14783859017929618,0.6890770831115818,-0.6581425740603806,0.26488629077040377,-2.9356509066338234,-0.5852529587956518,1.6789568862128177
9580,945711.146792137,945711.1648849584,right,0.13137097656726837,-0.029036246240139008,0.10020661354064941,-0.164375901222229,0.5649085640907288,0.8086154460906982,0.6693723797798157,-0.173863485455513,0.17261330783367157,-0.15473093749686243,0.6867796588585089,-0.6577547680494658,0.2678630094673597,-2.9410447749354214,-0.6003223176064486,1.6762250281695426
9581,945711.166792137,945711.1859698334,right,0.10653676837682724,-0.007649775594472885,0.1268950253725052,-0.1600703001022339,0.5754467844963074,0.8020216822624207,0.5954895615577698,-0.2159983366727829,0.0682595893740654,-0.16059779337990046,0.6855419956943041,-0.6565385900774583,0.2705504568238653,-2.9445977921277833,-0.613150231758063,1.6765529232537322
9582,945711.186792137,945711.2236264168,right,0.07442542910575867,-0.005388017278164625,0.12419179081916809,-0.15483689308166504,0.584700882434845,0.7963356971740723,0.5493836998939514,-0.3609754741191864,0.05638075992465019,-0.16651855191941867,0.6850153533722325,-0.6549211536377357,0.27221999018034554,-2.9495522754964894,-0.6245111816461207,1.6778724775171312
9583,945711.206792137,945711.22702075,right,0.04835503175854683,0.0018323673866689205,0.1114782765507698,-0.1466757208108902,0.5932950973510742,0.7915093898773193,0.5220709443092346,-0.5434191823005676,0.08555634319782257,-0.17333626954002643,0.6848917289448275,-0.6532058730801675,0.2723963851540699,-2.958359994238943,-0.6351459296187323,1.6785257811741392
9584,945711.226792137,945711.2512924584,right,0.010486719198524952,0.015636291354894638,0.11190394312143326,-0.13545213639736176,0.6013162136077881,0.7874460816383362,0.4612542688846588,-0.7184812426567078,0.0943978875875473,-0.18113012958669916,0.685148486931524,-0.6513789300013172,0.27105119935037403,-2.971245453537412,-0.6451473118619346,1.6783794886793213
9585,945711.246792137,945711.2675375,right,-0.023835593834519386,0.05174718797206879,0.18464982509613037,-0.12267158180475235,0.6081332564353943,0.7842996716499329,0.3891359567642212,-0.7832611203193665,0.003977624699473381,-0.18918526618450562,0.6860418647233121,-0.6492274598909329,0.26843837829614,-2.9864408343871376,-0.6537067922825713,1.6786158924838297
9586,945711.2667921371,945711.305136875,right,-0.0893215760588646,0.10704323649406433,0.28252270817756653,-0.1120489165186882,0.613103449344635,0.7820160984992981,0.2827584743499756,-0.7071523666381836,-0.21683385968208313,-0.19610149323905904,0.6880744085825866,-0.64619003421225,0.2655863826709869,-2.9992793610794224,-0.6599829536169884,1.682375501989864
9587,945711.2867921371,945711.3055695834,right,-0.24514026939868927,0.1353664994239807,0.3223411738872528,-0.1055620089173317,0.6162764430046082,0.7804230451583862,0.1758279651403427,-0.6414420008659363,-0.38844072818756104,-0.20124236600142187,0.6913655384057702,-0.6420476080810021,0.26322990779295347,-3.007146303030084,-0.6640056267503643,1.6911488830006614
9588,945711.3067921371,945711.3273041667,right,-0.4043773114681244,0.11974111199378967,0.27451688051223755,-0.10059995949268341,0.6175615191459656,0.7800623178482056,0.10676690191030502,-0.6481528878211975,-0.41454556584358215,-0.20523080228823304,0.6954098288337162,-0.6375235101376683,0.2604785522573389,-3.0133367713198513,-0.6656384781359866,1.7019858982512885
9589,945711.3267921371,945711.3520916668,right,-0.5593494176864624,0.06469734758138657,0.20069143176078796,-0.09473904967308044,0.6180394291877747,0.7804175019264221,0.08724112063646317,-0.6783574819564819,-0.32410869002342224,-0.20907148383315105,0.6993644814105543,-0.6333229550450676,0.2570608090919681,-3.0207886287776446,-0.6662462676681702,1.7116705405908332
9590,945711.3467921371,945711.3664316251,right,-0.7128552198410034,-0.010785219259560108,0.18783444166183472,-0.08787276595830917,0.618582546710968,0.7807905077934265,0.06893561780452728,-0.6127285361289978,-0.2736077606678009,-0.21303352998077785,0.7027411457652263,-0.6297221975707938,0.253419384031663,-3.029521120804695,-0.6669373114778971,1.71914448434459
9591,945711.3667921372,945711.4199137083,right,-0.8105916380882263,-0.028692511841654778,0.22750705480575562,-0.08974485099315643,0.6173004508018494,0.7815919518470764,-0.056287311017513275,-0.20303009450435638,-0.48758482933044434,-0.21315686173204867,0.7062216873252417,-0.6261364163782602,0.2525235460311312,-3.0272703819409488,-0.6653066013131584,1.7304029094880258
9592,945711.3867921372,945711.4200743334,right,-0.9083432555198669,-0.046582549810409546,0.2671717405319214,-0.09160173684358597,0.6160010695457458,0.7824015617370605,-0.18151025474071503,0.20666825771331787,-0.7015618085861206,-0.21327460728148429,0.7096840454670833,-0.6225345391420405,0.25162124073489334,-3.025045802212801,-0.6636560493573798,1.741642320413412
9593,945711.4067921372,945711.427051875,right,-0.9796120524406433,-0.045578066259622574,0.30534499883651733,-0.10700810700654984,0.6107915043830872,0.7845272421836853,-0.3687240481376648,0.6884613633155823,-0.9486666917800903,-0.20732903608126177,0.7140777672666389,-0.6183497813791963,0.25446223033696963,-3.006031206094924,-0.6570597612413308,1.7605125342941463
9594,945711.4267921372,945711.4460709167,right,-0.9929957389831543,-0.0245206356048584,0.3356967568397522,-0.13340818881988525,0.6010996699333191,0.7879600524902344,-0.5684066414833069,1.1231929063796997,-1.129049301147461,-0.19594066903974,0.7190771494561383,-0.61392832920761,0.2600521050411661,-2.9738750298115693,-0.6448763487346784,1.7843830969300467
9595,945711.4467921372,945711.4967195,right,-0.9522904753684998,-7.600368553539738E-05,0.37619107961654663,-0.16801844537258148,0.587411642074585,0.7916550040245056,-0.7298701405525208,1.49286949634552,-1.208343744277954,-0.18020462270453974,0.7240099214729673,-0.6096203973941688,0.2677664112689707,-2.9324591388474133,-0.6278567504606462,1.810043925347848
9596,945711.4667921372,945711.5010888334,right,-0.863951563835144,0.037849873304367065,0.41892051696777344,-0.20838409662246704,0.5704109072685242,0.7944855690002441,-0.8335069417953491,1.801952838897705,-1.2296652793884277,-0.16115853008192002,0.7282705283813391,-0.6056935881226013,0.27710119586696635,-2.8850827693460124,-0.6070059767534957,1.8347928720858167
9597,945711.4867921373,945711.5395732501,right,-0.752296507358551,0.10576963424682617,0.49153393507003784,-0.25515997409820557,0.5506953597068787,0.7947503328323364,-0.8604418635368347,2.037733554840088,-1.2154372930526733,-0.13867838801281446,0.7310815798998088,-0.6024074998232741,0.2887786883864007,-2.8309315737911662,-0.5831970271379802,1.8571235580917795
9598,945711.5067921373,945711.5396232083,right,-0.641173243522644,0.1748095005750656,0.5664425492286682,-0.3014039695262909,0.5298596024513245,0.792719841003418,-0.8873767852783203,2.2735142707824707,-1.201209306716919,-0.1161066807596167,0.7334098526111631,-0.5987234925449382,0.30026549333169494,-2.778257961789087,-0.558434980245437,1.877557779234645
9599,945711.5267921373,945711.5487823751,right,-0.5252560973167419,0.23844224214553833,0.6070727705955505,-0.3513405919075012,0.5076878666877747,0.7866464853286743,-0.9074642658233643,2.5017611980438232,-1.2335515022277832,-0.09167525631732892,0.7343782162900808,-0.5949888976955714,0.31348418341635825,-2.7215441687347046,-0.5324989124751257,1.895881859142242
9600,945711.5467921373,945711.5661545417,right,-0.4011097848415375,0.29674819111824036,0.6122850775718689,-0.40503430366516113,0.48308998346328735,0.7762548923492432,-1.0052741765975952,2.7568767070770264,-1.3543497323989868,-0.06505385981267124,0.7343754276463678,-0.590609936981333,0.3280862749319829,-2.6606733601404944,-0.5041803493545965,1.913104162084489
9601,945711.5667921373,945711.6181292917,right,-0.2717534899711609,0.3777032196521759,0.638384997844696,-0.46308931708335876,0.4544214904308319,0.7609526515007019,-1.1117222309112549,3.02280592918396,-1.5139219760894775,-0.035460115160497824,0.7336190062120945,-0.5850464996222481,0.343898347471182,-2.5948991171323406,-0.47172265556829596,1.9297466575566107
9602,945711.5867921374,945711.6198873334,right,-0.18448787927627563,0.44080761075019836,0.663895308971405,-0.5231137275695801,0.421853631734848,0.7405344843864441,-1.1937581300735474,3.127180337905884,-1.5565223693847656,-0.003582324953636566,0.7319634751209892,-0.5783568455355491,0.36016634443958184,-2.5265842564686376,-0.43548877202668734,1.9444864827555703
9603,945711.6067921374,945711.627261625,right,-0.10046771168708801,0.487782746553421,0.684410572052002,-0.5812060236930847,0.38743671774864197,0.7156064510345459,-1.192423701286316,3.1366617679595947,-1.5130807161331177,0.028845185682387166,0.7290917393507993,-0.5711640669765257,0.37598503110310916,-2.4594649298560705,-0.39784950441033834,1.955389607781725
9604,945711.6267921374,945711.6536566667,right,-0.0022392559330910444,0.529448926448822,0.6717334985733032,-0.6364758610725403,0.352428674697876,0.6860706210136414,-1.173952341079712,3.1799988746643066,-1.490344524383545,0.06115162296838912,0.7249730286821486,-0.5634264517888863,0.3914399243964997,-2.39367645662143,-0.3601650099408719,1.9629082243434441
9605,945711.6467921374,945711.6680342917,right,0.08811913430690765,0.5579261183738708,0.6436771750450134,-0.6892361044883728,0.31710952520370483,0.651456356048584,-1.1678282022476196,3.21679949760437,-1.4609054327011108,0.09343306250117862,0.719565431249338,-0.5549357895027737,0.406868629725356,-2.328022753701191,-0.3226801538159487,1.9677222323617953
9606,945711.6667921374,945711.6871571251,right,0.1601220667362213,0.5731931328773499,0.6219424605369568,-0.7383439540863037,0.282438725233078,0.6124346852302551,-1.1441270112991333,3.1810505390167236,-1.3597391843795776,0.1251791828348995,0.7127854976599387,-0.546034917360072,0.42203394745542333,-2.263250741181228,-0.28633539852425416,1.9694255142012553
9607,945711.6867921375,945711.7298759584,right,0.23577472567558289,0.5793765783309937,0.5798080563545227,-0.7824790477752686,0.2499854862689972,0.5702930688858032,-1.057651400566101,3.0879929065704346,-1.2058552503585815,0.15547479305247022,0.7047103034164156,-0.5371497869883038,0.43667043905548314,-2.200609542338145,-0.25266526876453227,1.9680408900758275
9608,945711.7067921375,945711.7305810001,right,0.2864522337913513,0.5485480427742004,0.4665391743183136,-0.8203541040420532,0.221698597073555,0.5271331667900085,-0.929875910282135,2.8370113372802734,-0.95067298412323,0.1831188708801586,0.6956023198455892,-0.5288704741870908,0.45044529094947344,-2.1419291552809754,-0.22355608114865969,1.9639024001729566
9609,945711.7267921375,945711.7565115418,right,0.32612502574920654,0.48926636576652527,0.3576979339122772,-0.8503625392913818,0.20021681487560272,0.4866182208061218,-0.7121750116348267,2.423182249069214,-0.6064411997795105,0.20626723103442327,0.686065525556186,-0.5221332995903363,0.4627577917928757,-2.0905599829955035,-0.20157922999440847,1.9576765721561133
9610,945711.7467921375,945711.776252625,right,0.4058090150356293,0.42724668979644775,0.22898036241531372,-0.8730204701423645,0.18559081852436066,0.45098885893821716,-0.57858806848526,2.0473618507385254,-0.4074806571006775,0.22450906448994226,0.6768810917828394,-0.5170361709873649,0.47339310557394315,-2.0476234056358913,-0.18667311021444327,1.9508639418230742
9611,945711.7667921375,945711.7873244584,right,0.5379835367202759,0.3928011655807495,0.12880830466747284,-0.8916974067687988,0.1727287471294403,0.4183782935142517,-0.604557991027832,1.9428516626358032,-0.5180580019950867,0.24068079624108607,0.668377655394584,-0.5123089445843982,0.4825799902618945,-2.009496203699551,-0.17359939910159564,1.9441134667532982
9612,945711.7867921375,945711.8328297083,right,0.6681241393089294,0.3721458315849304,0.09440212696790695,-0.9101730585098267,0.15520375967025757,0.3840530812740326,-0.6852127313613892,2.113898277282715,-0.8882566690444946,0.2585336141499859,0.6604765538572038,-0.5057640361865339,0.4910536597345195,-1.9700860194898093,-0.15583373041392923,1.9380752288306526
9613,945711.8067921376,945711.8332699167,right,0.7410014867782593,0.357144296169281,0.07413670420646667,-0.9297068119049072,0.12969982624053955,0.34470734000205994,-0.7530106902122498,2.366431713104248,-1.2953327894210815,0.2799906610578415,0.6529025857509003,-0.49605633612451594,0.4992508466612067,-1.9258533815513055,-0.13006625515502793,1.9327019641248053
9614,945711.8267921376,945711.8799044167,right,0.731311559677124,0.332433819770813,0.059677429497241974,-0.9484076499938965,0.09764299541711807,0.30164334177970886,-0.7032591700553894,2.2784650325775146,-1.3134033679962158,0.3037916048501618,0.6458445395144835,-0.4834320051022427,0.5068420226314984,-1.8787316519466994,-0.09779883905612835,1.9280248017026138
9615,945711.8467921376,945711.8800734584,right,0.718610405921936,0.3075706958770752,0.04651428759098053,-0.9640973806381226,0.06573864072561264,0.2572830319404602,-0.653507649898529,2.1904985904693604,-1.3314741849899292,0.32733942344816913,0.6382483195604776,-0.4704047337866596,0.5140109169531385,-1.8315831519906642,-0.06578610459912296,1.9218423282668067
9616,945711.8667921376,945711.8922793751,right,0.7162694931030273,0.2743890583515167,0.02646084688603878,-0.9753957390785217,0.03836745768785477,0.21709665656089783,-0.5193031430244446,1.9055365324020386,-1.094871997833252,0.34748686556324043,0.6311878969706953,-0.4584214016553074,0.5202925605978083,-1.7897994873520553,-0.03837690147103983,1.9160701037941228
9617,945711.8867921376,945711.930012375,right,0.7374774217605591,0.2339199185371399,-0.042712606489658356,-0.9829703569412231,0.0180341936647892,0.18287743628025055,-0.40681326389312744,1.574005365371704,-0.7441496849060059,0.3632920608250956,0.6246322479200865,-0.448634920547108,0.52590878842109,-1.754739094837857,-0.01803519950481986,1.9108580498345298
9618,945711.9067921377,945711.9307350001,right,0.7681863307952881,0.18764133751392365,-0.11582041531801224,-0.9878994226455688,0.005000116769224405,0.15501542389392853,-0.3180123269557953,1.2506048679351807,-0.4107398986816406,0.37506449097862465,0.6184337591794122,-0.44164172778454486,0.5308660860043162,-1.7264414086931488,-0.00500016554445942,1.9055773740633108
9619,945711.9267921377,945711.970390875,right,0.7976880073547363,0.145430788397789,-0.17724503576755524,-0.9910429120063782,-0.0010282789589837193,0.13353995978832245,-0.2673938572406769,0.914466142654419,-0.0915614441037178,0.38303742036442534,0.6126859100251848,-0.4374768258248342,0.5352683641764654,-1.704736531472085,0.0010282512718065321,1.9005317463120033
9620,945711.9467921377,945711.9706526668,right,0.8402568101882935,0.10176323354244232,-0.22799228131771088,-0.9929646253585815,-0.0007270458154380322,0.11840976774692535,-0.2791280150413513,0.6054109334945679,0.1546477973461151,0.38767042030551613,0.6073985260893044,-0.4362017135197277,0.5389867237087801,-1.6894846362661138,0.0007270189757205772,1.8953432789864222
9621,945711.9667921377,945711.9948518334,right,0.9065744280815125,0.06901682913303375,-0.2542552053928375,-0.9941348433494568,0.003113074228167534,0.10810356587171555,-0.2572248876094818,0.42445364594459534,0.25157445669174194,0.3902018194776597,0.6026923099494575,-0.43682237288097747,0.541932374499153,-1.6791121417604657,-0.003113104712940107,1.8900509903596372
9622,945711.9867921377,945712.0171690417,right,0.9672453999519348,0.04392344877123833,-0.26672643423080444,-0.9948826432228088,0.007738449145108461,0.10074115544557571,-0.193489670753479,0.3172406256198883,0.24566350877285004,0.3917764176793417,0.5986835419114613,-0.4381194077497598,0.5441880131931214,-1.6717117446196685,-0.007738550579238159,1.885079072691816
9623,945712.0067921377,945712.0287832917,right,0.9927060604095459,0.022276483476161957,-0.2890501320362091,-0.9953057169914246,0.01224139891564846,0.0960022509098053,-0.11228980869054794,0.1617610901594162,0.24713954329490662,0.39251725513082,0.595644801697974,-0.43955479607438835,0.5458285878262191,-1.6669539547787156,-0.012241727791247624,1.8812242410580378
9624,945712.0267921378,945712.0723182501,right,1.0114562511444092,0.010466594249010086,-0.28638002276420593,-0.9953170418739319,0.017364446073770523,0.0950922816991806,0.0037828951608389616,-0.062223467975854874,0.28935202956199646,0.39170747488069335,0.5939432081791172,-0.44133618744123904,0.5468262860869183,-1.6660469713233157,-0.017365340746312585,1.8792869526807199
9625,945712.0467921378,945712.0735491667,right,1.0282496213912964,0.01414113026112318,-0.26191622018814087,-0.9948245882987976,0.024031072854995728,0.09872443974018097,0.14483554661273956,-0.3050854206085205,0.36316978931427,0.3886461587757113,0.5938001189030734,-0.4435805014695424,0.5473497628942039,-1.6697105653445206,-0.02403340759117992,1.8801769010588245
9626,945712.0667921378,945712.0885526667,right,1.041344165802002,0.0186000969260931,-0.23821449279785156,-0.9937323331832886,0.032770220190286636,0.10687364637851715,0.3189379870891571,-0.5310735106468201,0.4640369415283203,0.3831036324349832,0.5951554489182477,-0.44634833496728304,0.5475349990203193,-1.677932305105721,-0.032776109711712034,1.8840701414569907
9627,945712.0867921378,945712.1338469167,right,1.0269042253494263,0.012087765149772167,-0.23961593210697174,-0.9918394088745117,0.04415522515773773,0.1196037232875824,0.4825817048549652,-0.7870752811431885,0.6003692150115967,0.3748698970624368,0.5979148914288488,-0.4497773514857243,0.5474217782335483,-1.6908047220416222,-0.044169608261808,1.890886924989656
9628,945712.1067921378,945712.1355963334,right,0.996339738368988,0.0064369379542768,-0.2420995682477951,-0.9886891841888428,0.05931476131081581,0.1377515196800232,0.616858184337616,-1.1009396314620972,0.7912906408309937,0.36354936102141777,0.6019384136593539,-0.45447323959049685,0.5467686440915065,-1.709232625489331,-0.05934961847480859,1.8998425937346115
9629,945712.1267921379,945712.1486464167,right,0.9538990259170532,0.007534237112849951,-0.22821828722953796,-0.9835777282714844,0.07913944870233536,0.1622086614370346,0.7126936912536621,-1.4624568223953247,1.0109822750091553,0.34873498884952986,0.6071688688087452,-0.4609233272638273,0.5452333370505804,-1.7342421747214467,-0.07922231315726311,1.9101854109683503
9630,945712.1467921379,945712.18992975,right,0.9133154153823853,0.007867157459259033,-0.20156124234199524,-0.9757792949676514,0.10339217633008957,0.1927817463874817,0.7801336050033569,-1.7839404344558716,1.1720197200775146,0.3305402814600641,0.6134974107132154,-0.4690541664381686,0.5425422523207754,-1.7658513859125151,-0.10357729552291148,1.9212269323044262
9631,945712.1667921379,945712.1905972917,right,0.8825069665908813,0.02476433292031288,-0.17450614273548126,-0.9650387763977051,0.1301284283399582,0.2275228500366211,0.777974009513855,-1.971788763999939,1.2127164602279663,0.3101773633832507,0.6205387067744842,-0.47821872302988194,0.538542865596031,-1.8023336519100293,-0.13049852317626395,1.9317821195808742
9632,945712.1867921379,945712.2307963751,right,0.8387337327003479,0.06167766824364662,-0.1179339662194252,-0.951654314994812,0.15696218609809875,0.2640392482280731,0.7497245073318481,-2.0663206577301025,1.1919350624084473,0.28918912645070965,0.6278499912280475,-0.4876720386054649,0.5332446148257968,-1.8414415971695126,-0.15761396426904759,1.9407505971733794
9633,945712.2067921379,945712.2318129167,right,0.7532979249954224,0.09021738916635513,-0.05962483212351799,-0.9356011152267456,0.18369242548942566,0.30150914192199707,0.7487114071846008,-2.1771066188812256,1.1971298456192017,0.26771027748779247,0.6352983753359217,-0.4971423844912968,0.5268553419162758,-1.8825503154552106,-0.18474149477387145,1.9483353812052986
9634,945712.226792138,945712.2578001667,right,0.6668749451637268,0.11680974811315536,-0.024233834818005562,-0.9164866805076599,0.2105947732925415,0.3401499390602112,0.7261271476745605,-2.2855184078216553,1.198361873626709,0.2455244128458965,0.6428719974798064,-0.5067450731914376,0.5192712754737646,-1.9261835394520643,-0.21218334639751502,1.9543812510916172
9635,945712.246792138,945712.28751375,right,0.5809483528137207,0.1630706638097763,0.036625877022743225,-0.8945230841636658,0.23710720241069794,0.3789573013782501,0.6712052226066589,-2.3337697982788086,1.1755300760269165,0.22304106842974483,0.650378488062375,-0.5162232738834172,0.5106602778120741,-1.9715160053413787,-0.23938706542696517,1.9587777489947047
9636,945712.266792138,945712.2885157501,right,0.4700847566127777,0.22136539220809937,0.12346960604190826,-0.8699806332588196,0.263128399848938,0.4170094132423401,0.6147945523262024,-2.3459885120391846,1.1908133029937744,0.2006176536427897,0.6574486502758162,-0.5256100979290307,0.5012460930955336,-2.0177731820690816,-0.266263450038705,1.9610002674073044
9637,945712.286792138,945712.3298820417,right,0.3561237156391144,0.2625728249549866,0.17609526216983795,-0.8426347374916077,0.28903135657310486,0.4543426036834717,0.5315952301025391,-2.389108180999756,1.2666094303131104,0.1782282509093265,0.6637956338038552,-0.5353005136645899,0.49098181873877306,-2.0653045087294597,-0.29321486834916466,1.960134468834892
9638,945712.306792138,945712.3309730834,right,0.24307046830654144,0.2897612154483795,0.22784481942653656,-0.8114683628082275,0.3155471980571747,0.4918832778930664,0.43917959928512573,-2.4930338859558105,1.398040771484375,0.1553808796938946,0.6692649227609689,-0.5459176462958989,0.47949459813228806,-2.115736255517204,-0.32103323939138223,1.9549885515838847
9639,945712.326792138,945712.3547287501,right,0.14743560552597046,0.31257274746894836,0.29946833848953247,-0.7758457660675049,0.3428768515586853,0.5296218395233154,0.35805609822273254,-2.5784835815429688,1.5322535037994385,0.13173501874531005,0.6737980401910565,-0.5575007722934271,0.46672800514299684,-2.169774784708161,-0.34997769187490135,1.945348373451563
9640,945712.3467921381,945712.3759257917,right,0.07529038190841675,0.3306432068347931,0.3631274402141571,-0.7363131046295166,0.3702901601791382,0.5663289427757263,0.3177122473716736,-2.5521962642669678,1.604652762413025,0.1076927262413972,0.6772312779010184,-0.5696685220627024,0.45303179472342225,-2.226435899172909,-0.3793213444871396,1.9314023730177399
9641,945712.3667921381,945712.3897970418,right,0.00893388781696558,0.32675835490226746,0.3751566708087921,-0.6945170164108276,0.3965570628643036,0.6003236770629883,0.25424936413764954,-2.448822021484375,1.6199820041656494,0.08416669804979485,0.6794054081346297,-0.581867770663949,0.4390376117873457,-2.283577369969336,-0.40776334866265596,1.9137408344669917
9642,945712.3867921381,945712.4323223333,right,-0.06238062307238579,0.3423577547073364,0.418270081281662,-0.6520140767097473,0.4210415482521057,0.6305568814277649,0.2358507513999939,-2.320889472961426,1.603735089302063,0.061630027487055795,0.6804452276164897,-0.5935256549111304,0.42535081752060155,-2.3394663289279833,-0.43459328503924527,1.8937399124922396
9643,945712.4067921381,945712.4335235001,right,-0.16769124567508698,0.3485313653945923,0.4946604073047638,-0.6082019805908203,0.44482937455177307,0.6574326753616333,0.2847457528114319,-2.287092924118042,1.669925570487976,0.03931163714748374,0.6804147644958077,-0.604774379759601,0.4119931310433335,-2.395073046229666,-0.46098370564090024,1.8716528202035185
9644,945712.4267921381,945712.4509157084,right,-0.2625444531440735,0.331950306892395,0.5209858417510986,-0.5617884993553162,0.46913522481918335,0.6814001202583313,0.3697440028190613,-2.2836763858795166,1.749929428100586,0.01620106051109742,0.6793407124490706,-0.615789091074083,0.39879502889414997,-2.4521129431998645,-0.48831124838528134,1.8472935823921608
9645,945712.4467921382,945712.4763327917,right,-0.31408795714378357,0.31517294049263,0.4928741455078125,-0.5137768983840942,0.493426114320755,0.7018290758132935,0.41855674982070923,-2.1958112716674805,1.73236882686615,-0.007307649889967008,0.6772880588807205,-0.6262550381837497,0.3860466427881333,-2.509676309988157,-0.5160243537184313,1.8211681701089115
9646,945712.4667921382,945712.4923267917,right,-0.34763064980506897,0.3050381541252136,0.49770674109458923,-0.4665457010269165,0.51567143201828,0.7186225056648254,0.3921026885509491,-2.048874616622925,1.6157276630401611,-0.029863785360479383,0.6746757337325385,-0.6357073635879079,0.3738942519192369,-2.565764520487766,-0.5417910915145722,1.7943765482425853
9647,945712.4867921382,945712.5310102918,right,-0.3731798231601715,0.3025340139865875,0.500289797782898,-0.42195332050323486,0.5344381928443909,0.73234623670578,0.3449704945087433,-1.8635191917419434,1.4488362073898315,-0.05045090365000979,0.6719442568689543,-0.6439440775781142,0.3623278371087463,-2.6188823678455613,-0.5638428234363243,1.7679774747935555
9648,945712.5067921382,945712.5321931667,right,-0.39407429099082947,0.28148579597473145,0.4491542875766754,-0.3809482753276825,0.5496649146080017,0.7434696555137634,0.27554401755332947,-1.6876040697097778,1.2650483846664429,-0.06881164827336267,0.6693734291720934,-0.6509024390339218,0.35146854907518477,-2.668080417887106,-0.581962992299007,1.743043000416246
9649,945712.5267921382,945712.5829501668,right,-0.3964075446128845,0.2576329708099365,0.4289163649082184,-0.34648463129997253,0.5609512329101562,0.7518525719642639,0.23664037883281708,-1.5286519527435303,1.1056543588638306,-0.08392639718611501,0.6673845110275826,-0.6561433808424368,0.3420965909371203,-2.709760010845025,-0.5955343342894043,1.722204018984588
9650,945712.5467921383,945712.5830807501,right,-0.3992120623588562,0.23449097573757172,0.4097737669944763,-0.3115497827529907,0.571526825428009,0.7591403722763062,0.1977367401123047,-1.3696999549865723,0.9462604522705078,-0.09901188976986916,0.6651635258935504,-0.6611562542563725,0.33260561404952305,-2.752154792499427,-0.6083652300581541,1.7005043176586117
9651,945712.5667921383,945712.6024010833,right,-0.3845897614955902,0.202915221452713,0.3783271014690399,-0.28106966614723206,0.5798614621162415,0.7646960616111755,0.16838347911834717,-1.2195639610290527,0.8106434941291809,-0.11201613096845757,0.6632959715850419,-0.6651213570626568,0.32419773755401443,-2.7893631259319265,-0.618558529077018,1.681652673541864
9652,945712.5867921383,945712.6172472084,right,-0.34299832582473755,0.1659754514694214,0.3163018822669983,-0.25472646951675415,0.5863745808601379,0.768946647644043,0.1457379311323166,-1.0447531938552856,0.6792665719985962,-0.12312188942072277,0.6617308635542143,-0.6682705405676458,0.3168083603799792,-2.8217033307443504,-0.6265758435262112,1.6653901565488778
9653,945712.6067921383,945712.6309950834,right,-0.30752700567245483,0.13083133101463318,0.26856324076652527,-0.2324577271938324,0.5915247201919556,0.772050142288208,0.12560993432998657,-0.8887332081794739,0.5743915438652039,-0.1324628465910481,0.6604088969883438,-0.6707347270864107,0.3105291269087266,-2.849134962047233,-0.6329484510183954,1.6516702505818492
9654,945712.6267921383,945712.6557555834,right,-0.2910739779472351,0.10920149087905884,0.24632494151592255,-0.21297669410705566,0.5960733890533447,0.7741691470146179,0.13791033625602722,-0.7926236987113953,0.5352461338043213,-0.14067673289153457,0.6591060344922218,-0.6728028998927724,0.30516479791290024,-2.873130358125661,-0.6386017021001161,1.6394647729278164
9655,945712.6467921383,945712.6724915834,right,-0.27096787095069885,0.09891032427549362,0.23127077519893646,-0.19476431608200073,0.6006172895431519,0.775452196598053,0.16927620768547058,-0.7236760258674622,0.5377723574638367,-0.14842503435849774,0.6575656463362443,-0.6747840020067407,0.3004063555975848,-2.89552060419197,-0.6442728484852439,1.6274508152564966
9656,945712.6667921384,945712.6899848334,right,-0.24902065098285675,0.08487579226493835,0.21450278162956238,-0.17744773626327515,0.6051258444786072,0.7761021852493286,0.15409018099308014,-0.6605693101882935,0.5336359739303589,-0.15580552085777075,0.6557625978719694,-0.6767765045252533,0.2960969252524989,-2.916816839756266,-0.6499238100403681,1.615271019127424
9657,945712.6867921384,945712.7323793333,right,-0.21227078139781952,0.08175070583820343,0.20653226971626282,-0.1614643782377243,0.6088166832923889,0.7767059206962585,0.10399986058473587,-0.5784935355186462,0.508813202381134,-0.16237256679816645,0.6538800954547145,-0.6788178689488517,0.292031354156169,-2.9366285865893653,-0.6545679901050606,1.6031764001219684
9658,945712.7067921384,945712.7334437084,right,-0.190373033285141,0.0766877681016922,0.17225797474384308,-0.14668895304203033,0.611579418182373,0.7774655818939209,0.0500347875058651,-0.5340798497200012,0.5200422406196594,-0.1680921814606599,0.6518791717490461,-0.6810185499594753,0.2881182348962552,-2.9551092632627367,-0.6580551906181222,1.5909158435421422
9659,945712.7267921384,945712.7750344584,right,-0.2069883793592453,0.06620696187019348,0.1472080796957016,-0.13128302991390228,0.6140180826187134,0.7782972455024719,0.048033103346824646,-0.587680995464325,0.611463189125061,-0.17380862220259974,0.6495306225492906,-0.6835630988624993,0.28397519058355125,-2.974486083297965,-0.6611411696541204,1.5772120922717545
9660,945712.7467921384,945712.7754722084,right,-0.22042216360569,0.055447690188884735,0.13600189983844757,-0.11318318545818329,0.6164905428886414,0.7791847586631775,0.06606253981590271,-0.6778339147567749,0.7139297127723694,-0.1803884924603656,0.6466551231715233,-0.6866072081183487,0.27904756544487025,-2.9973433041488318,-0.6642775012193557,1.560712847972639
9661,945712.7667921385,945712.7927310833,right,-0.20143242180347443,0.04143676534295082,0.10688396543264389,-0.0936216190457344,0.6189721822738647,0.7798130512237549,0.06257874518632889,-0.6658117771148682,0.709608256816864,-0.18748538158746664,0.6434429989298704,-0.6898460193959927,0.2737565873039807,-3.0221082453682593,-0.6674332844331515,1.542683996370743
9662,945712.7867921385,945712.8224695417,right,-0.16015033423900604,0.022255826741456985,0.0626622810959816,-0.07617154717445374,0.6207493543624878,0.780299723148346,0.0146096870303154,-0.5162706971168518,0.5731556415557861,-0.19367521081451244,0.6404683001778422,-0.6927843307112924,0.2689607498313142,-3.044282861064358,-0.6696980097626941,1.526240069109355
9663,945712.8067921385,945712.8385916251,right,-0.12268007546663284,0.023251352831721306,0.05210107937455177,-0.0639953464269638,0.6211309432983398,0.7810892462730408,-0.05722254514694214,-0.3026578426361084,0.3679109811782837,-0.1976349590966246,0.6383272730942163,-0.6950416088425647,0.2653217364968153,-3.0598445612982834,-0.6701848453381734,1.5142586615071603
9664,945712.8267921385,945712.8718937084,right,-0.12258917838335037,0.038627270609140396,0.07355695217847824,-0.056961510330438614,0.620458722114563,0.7821674942970276,-0.07995777577161789,-0.1645304411649704,0.2313496470451355,-0.19950820089627985,0.6370099350900388,-0.6966361979418998,0.2628927583896983,-3.0688959934657465,-0.6693273839183917,1.5067267568392364
9665,945712.8467921385,945712.8729732084,right,-0.14360785484313965,0.04444914683699608,0.09447557479143143,-0.05167050287127495,0.6197620034217834,0.7830868363380432,-0.02770831063389778,-0.15730516612529755,0.24038885533809662,-0.20080282173964087,0.635910568735009,-0.6979692430235979,0.26102625499191406,-3.0757052685217996,-0.6684392332288888,1.5006996806071475
9666,945712.8667921385,945712.9008511667,right,-0.15770943462848663,0.036059435456991196,0.09130440652370453,-0.04540036618709564,0.6200128197669983,0.7832767367362976,0.039049554616212845,-0.213542178273201,0.2960518002510071,-0.20281106428202655,0.6345293307372514,-0.6992930865258647,0.2592858355351302,-3.083695550057763,-0.6687589181778073,1.4938820961655872
9667,945712.8867921386,945712.9298156668,right,-0.15677975118160248,0.023398099467158318,0.07677875459194183,-0.037764985114336014,0.621388852596283,0.7825915813446045,0.10933867841959,-0.244216650724411,0.344241201877594,-0.20572365603998385,0.6327465856250528,-0.700662154176654,0.2576468787257303,-3.0933739621886187,-0.670513906431494,1.4858191732519421
9668,945712.9067921386,945712.9309780834,right,-0.2780100107192993,-0.008224889636039734,0.07476386427879333,-0.028408357873558998,0.6239843964576721,0.7809200286865234,0.14757242798805237,-0.34136831760406494,0.48220738768577576,-0.20962740044710576,0.6302730316689428,-0.7022932741784829,0.25611758015811575,-3.105230844723734,-0.6738310751942889,1.4755462773098664
9669,945712.9267921386,945712.9547397083,right,-0.5252506732940674,-0.05416332557797432,0.12262745201587677,-0.015058713033795357,0.6274012327194214,0.7785505056381226,0.2665889859199524,-0.4474928677082062,0.6519676446914673,-0.21515491538755638,0.6268286987189973,-0.7045288861149841,0.2538366890341618,-3.122253300615859,-0.6782112181815663,1.461026945531637
9670,945712.9467921386,945712.9756614168,right,-0.5627966523170471,-0.08114203810691833,0.13775187730789185,0.0002621892490424216,0.6321055889129639,0.7748820781707764,0.3174881935119629,-0.3781879246234894,0.6590399742126465,-0.22179539178667979,0.6224833033992849,-0.7070753057085905,0.2517254071408871,3.1412540691928728,-0.6842673901135686,1.443598559540222
9671,945712.9667921386,945712.9907931667,right,-0.33517757058143616,-0.07070616632699966,0.0784122496843338,0.011383925564587116,0.6357066035270691,0.7718468904495239,0.15993808209896088,-0.11722353845834732,0.427639365196228,-0.22652443138747944,0.6186680401959533,-0.7093470238243649,0.25052592409531366,3.12684455362608,-0.6889233991111245,1.429153475619052
9672,945712.9867921387,945713.0328680833,right,-0.10612037777900696,-0.030252255499362946,0.025588499382138252,0.013956766575574875,0.637200117111206,0.7705719470977783,0.024990389123558998,0.24072055518627167,0.1407722383737564,-0.22737906123053325,0.6162388602574307,-0.7110102225708219,0.2510233901368677,3.12348218891962,-0.6908597427527247,1.4217120438336166
9673,945713.0067921387,945713.033208125,right,0.025449780747294426,0.014827954582870007,0.0034554970916360617,0.0085561852902174,0.6366246342658997,0.7711261510848999,-0.07686690241098404,0.5225688815116882,-0.046540167182683945,-0.2244985771876072,0.6149947181780171,-0.7122811790855239,0.25305572270492055,3.130497182715428,-0.690113267832438,1.4204739087665657
9674,945713.0267921387,945713.0510960834,right,0.08715686947107315,0.051948338747024536,-0.0008413463947363198,-0.002144757192581892,0.6345229148864746,0.7729011178016663,-0.17413300275802612,0.6837058663368225,-0.14966991543769836,-0.21905856085633285,0.6144759182232318,-0.7133511197752274,0.2560522834200627,-3.1388179396114047,-0.687390934810413,1.4231357860530418
9675,945713.0467921387,945713.0925854167,right,0.12412095069885254,0.09245635569095612,0.017637016251683235,-0.015504477545619011,0.6311304569244385,0.7755218148231506,-0.24186424911022186,0.7599939107894897,-0.17480431497097015,-0.2121041723607733,0.6142515488255855,-0.7144619241144793,0.2593278064929443,-3.1216032193470613,-0.6830095540288509,1.4273480818705084
9676,945713.0667921387,945713.0930902917,right,0.13573116064071655,0.11499153077602386,0.028415536507964134,-0.029192745685577393,0.6269151568412781,0.7785405516624451,-0.27364468574523926,0.7435017824172974,-0.11204845458269119,-0.2046435782274794,0.6139005224473023,-0.7158186448278068,0.26239426130221705,-3.104113671409938,-0.6775871231904189,1.4310108578219958
9677,945713.0867921388,945713.1226459584,right,0.13631169497966766,0.11844326555728912,0.026304148137569427,-0.040781814604997635,0.622536301612854,0.7815276980400085,-0.27235689759254456,0.655081570148468,0.02354981191456318,-0.19776100111015102,0.6129515973320411,-0.7176726927688675,0.2648145290405561,-3.0894579800288233,-0.6719792584349366,1.431929193218795
9678,945713.1067921388,945713.1611488333,right,0.13907885551452637,0.09901440888643265,-0.0010894559090957046,-0.048848774284124374,0.6185653805732727,0.7842131853103638,-0.2510996460914612,0.5423437356948853,0.19075480103492737,-0.19213751272169716,0.6110832632963844,-0.7201970266233346,0.26641404447040107,-3.0793830706258865,-0.6669153765961677,1.4287936567651038
9679,945713.1267921388,945713.1622231667,right,0.1413976401090622,0.06638939678668976,-0.037241265177726746,-0.05320947617292404,0.6152133345603943,0.7865628600120544,-0.22134636342525482,0.4486648440361023,0.3479152023792267,-0.18790482562129587,0.6082380682742712,-0.7234139782250975,0.26722698843808457,-3.07404767830567,-0.6626563901669165,1.4214874351703508
9680,945713.1467921388,945713.1994446251,right,0.13160382211208344,0.03330547735095024,-0.05981316789984703,-0.05454286187887192,0.6126961708068848,0.7884340882301331,-0.17702065408229828,0.37513020634651184,0.48612186312675476,-0.18489676021602666,0.6044444771580946,-0.7272302570603077,0.2675743891527631,-3.0725241816218603,-0.659467424743207,1.41055341863562
9681,945713.1667921388,945713.1996209167,right,0.09548782557249069,-0.0006367855821736157,-0.06008137762546539,-0.052981045097112656,0.6113211512565613,0.789607048034668,-0.09196844696998596,0.2991470694541931,0.6270448565483093,-0.18318964789289321,0.5996791017198624,-0.7315657175401694,0.26765265244405473,-3.0745952895882964,-0.6577287679473782,1.3961711036180846
9682,945713.1867921388,945713.2174595834,right,0.004875756800174713,-0.0480036698281765,-0.036594849079847336,-0.048641905188560486,0.6113241314888,0.7898838520050049,-0.007851600646972656,0.23696401715278625,0.717557430267334,-0.1828663414775303,0.5939951785788259,-0.7362822656445345,0.2676151530050523,-3.0800894396221996,-0.6577325792765717,1.3786797649603861
9683,945713.2067921389,945713.2421892917,right,-0.13599847257137299,-0.10130307078361511,0.007655291352421045,-0.043621353805065155,0.6122483015060425,0.7894612550735474,0.024209050461649895,0.23888735473155975,0.6682080030441284,-0.1831603026718684,0.5881187761672318,-0.7408419833838341,0.2678088833306203,-3.086394403239007,-0.6589008409748482,1.3608385289686828
9684,945713.2267921389,945713.2622089584,right,-0.21752651035785675,-0.13729654252529144,0.04736083373427391,-0.04093377664685249,0.6128344535827637,0.7891501188278198,-0.017935508862137794,0.3265327215194702,0.44885578751564026,-0.18270077479781008,0.5831285121607312,-0.7446718095376861,0.2684123944678013,-3.0897685913293356,-0.659642447307358,1.3464055122620868
9685,945713.2467921389,945713.2723950418,right,-0.18656617403030396,-0.13017764687538147,0.05388055369257927,-0.043754346668720245,0.6121326088905334,0.7895435690879822,-0.10107805579900742,0.49969810247421265,0.14155174791812897,-0.1800924231916236,0.579909216239283,-0.7473131833212662,0.2698052154934601,-3.0862322127898056,-0.6587545753115225,1.338787207750012
9686,945713.2667921389,945713.2919015834,right,-0.10810966789722443,-0.09761979430913925,0.03948383033275604,-0.053068894892930984,0.6097822189331055,0.7907899618148804,-0.19134053587913513,0.6702931523323059,-0.11378562450408936,-0.17480480391033415,0.5785287178763409,-0.7487986518254697,0.2721178030427758,-3.0745846151906266,-0.6557856158231804,1.3384307930464716
9687,945713.2867921389,945713.3291170418,right,-0.032481029629707336,-0.05145515501499176,0.022931445389986038,-0.06691908091306686,0.6058475375175476,0.792761504650116,-0.2642061412334442,0.7721022963523865,-0.2510456442832947,-0.1674743891317828,0.578367981376765,-0.7495806426641507,0.27490286406046155,-3.05737986452909,-0.6508305442785467,1.3427797232865204
9688,945713.306792139,945713.3320291667,right,0.021222252398729324,-0.003172905882820487,0.007655723951756954,-0.08249418437480927,0.6007320880889893,0.7951825857162476,-0.326849102973938,0.7749267220497131,-0.24914883077144623,-0.15916111492797266,0.5786413506438799,-0.7501769189353921,0.2776262013082474,-3.0382201990788675,-0.6444163501087045,1.3485757508391185
9689,945713.326792139,945713.3523235834,right,0.05229182541370392,0.0368371419608593,0.006257848348468542,-0.097003273665905,0.5951655507087708,0.7977267503738403,-0.3386864960193634,0.6897661685943604,-0.15962260961532593,-0.15106713532028723,0.5787037048889003,-0.7509762335950844,0.2798485235764439,-3.0205872984748723,-0.6374714587440605,1.3530862866900242
9690,945713.346792139,945713.3748618334,right,0.06438266485929489,0.059306737035512924,-0.00018346104479860514,-0.10782553255558014,0.5897320508956909,0.8003684878349304,-0.3162654638290405,0.5262740254402161,0.005747765302658081,-0.14429790901104808,0.5780769337582462,-0.7523371668621568,0.2810583678955728,-3.0076792426334555,-0.630726826435593,1.3540629929314627
9691,945713.366792139,945713.3923213751,right,0.05978721007704735,0.06325484812259674,-0.016931265592575073,-0.11339190602302551,0.5850664377212524,0.8030190467834473,-0.28054556250572205,0.32182300090789795,0.2015933096408844,-0.13963298830633383,0.5765234326853695,-0.7544071629069528,0.2810570821324678,-3.001313296098959,-0.6249618464120336,1.3504497633132777
9692,945713.386792139,945713.4224069167,right,0.03477213904261589,0.059402838349342346,-0.03318792209029198,-0.11339738219976425,0.5815688967704773,0.8055548071861267,-0.23581326007843018,0.1275012344121933,0.38713476061820984,-0.13732819956155937,0.5739905498051544,-0.7571738137660109,0.27993478384777143,-3.0017424743668584,-0.620655770837968,1.342205463143838
9693,945713.406792139,945713.4387204584,right,-0.00463813217356801,0.05142853036522865,-0.03991924226284027,-0.10887470841407776,0.5791301131248474,0.8079321980476379,-0.19687189161777496,-0.0020767608657479286,0.5100581049919128,-0.13699725857782172,0.5706465742107804,-0.760479135422198,0.2779668369179137,-3.0076425439729335,-0.6176610993985479,1.3302781066045213
9694,945713.4267921391,945713.4697324584,right,-0.04957306385040283,0.03537404164671898,-0.05063471570611,-0.1020336002111435,0.5773956775665283,0.8100637793540955,-0.17581821978092194,-0.04235322028398514,0.5460227131843567,-0.13775392293586616,0.5668521229758771,-0.7640094849513767,0.2756662846622072,-3.016295197532772,-0.6155351300322096,1.3165251478342377
9695,945713.4467921391,945713.4719002501,right,-0.08129569888114929,0.01581651158630848,-0.060825493186712265,-0.09550880640745163,0.5757372379302979,0.8120374083518982,-0.17929579317569733,0.004635013174265623,0.4837985634803772,-0.1384727207210616,0.563124213272109,-0.767404549589289,0.2735078889656561,-3.0245144646490103,-0.6135053410251692,1.3032317494922157
9696,945713.4667921391,945713.4948130001,right,-0.08994574844837189,-0.00013089386629872024,-0.05845584347844124,-0.09153563529253006,0.573554277420044,0.8140372037887573,-0.201863095164299,0.10764273256063461,0.34129443764686584,-0.13818892027451596,0.5600040882266912,-0.7703336634417063,0.27181821170336135,-3.029616709010791,-0.610838041887984,1.2925246724101702
9697,945713.4867921391,945713.5304842917,right,-0.08034801483154297,-0.006535758730024099,-0.04287620261311531,-0.09118904173374176,0.5706651210784912,0.8161043524742126,-0.22632230818271637,0.20233191549777985,0.1736396700143814,-0.1365043744248962,0.5578656535261919,-0.7725529116105488,0.2707664246688658,-3.0303174117388796,-0.6073154149271875,1.2857186633999216
9698,945713.5067921391,945713.5333515834,right,-0.06009284034371376,-0.008536912500858307,-0.025104975327849388,-0.09399587661027908,0.5672614574432373,0.8181563019752502,-0.22570466995239258,0.2526093125343323,0.034983277320861816,-0.1336894261866947,0.5567501415763231,-0.7740202461316662,0.270275956734937,-3.0272069039699945,-0.6031765487156946,1.2827372319224049
9699,945713.5267921392,945713.5575382084,right,-0.03166517615318298,-0.00932296272367239,-0.015207529999315739,-0.0984727218747139,0.5636511445045471,0.820122480392456,-0.2138284295797348,0.24346424639225006,-0.05269609019160271,-0.1304110650721041,0.5564877951695295,-0.7748435359501438,0.2700588404971821,-3.022094161509779,-0.5987992270748519,1.2825913104385012
9700,945713.5467921392,945713.5774089583,right,-0.006361521314829588,-0.010713307186961174,-0.010456865653395653,-0.103070467710495,0.5601337552070618,0.8219650983810425,-0.19364801049232483,0.17976053059101105,-0.09931688010692596,-0.12733158537395636,0.5568201547178377,-0.7751991945181732,0.269822294522972,-3.0168487505785424,-0.5945471100436514,1.2840561632250809
9701,945713.5667921392,945713.5940632917,right,0.016169605776667595,-0.009003742597997189,-0.005900833755731583,-0.10661541670560837,0.5570244193077087,0.8236241936683655,-0.16243992745876312,0.0880630761384964,-0.10845726728439331,-0.12496263111375479,0.5574949689638976,-0.7752492301900291,0.2693922180475648,-3.0128619907450402,-0.5907984325992224,1.2861046794311526
9702,945713.5867921392,945713.617332875,right,0.03354121744632721,-0.0048170373775064945,-0.006023915950208902,-0.10850970447063446,0.5544524192810059,0.8251108527183533,-0.12516945600509644,-0.0059251911006867886,-0.09907901287078857,-0.12354268070665576,0.5583623702519708,-0.7751043825886916,0.2686664585159663,-3.0108339506195874,-0.5877046592332974,1.288154446437845
9703,945713.6067921392,945713.633996,right,0.04036926478147507,-0.0063426983542740345,-0.008608781732618809,-0.1089344322681427,0.5523864030838013,0.8264396786689758,-0.09452307224273682,-0.08206918090581894,-0.10599932819604874,-0.12298772397879026,0.5594401947410693,-0.7747557275578936,0.26768290116891263,-3.010536637982214,-0.5852241850127184,1.290324123076429
9704,945713.6267921393,945713.6543496667,right,0.040600426495075226,-0.010357437655329704,-0.0084822503849864,-0.10835014283657074,0.5507059097290039,0.8276371955871582,-0.07023002207279205,-0.13485555350780487,-0.12309901416301727,-0.12306763873530384,0.5607479568308616,-0.7741965099633429,0.2665253122327882,-3.0114181087879928,-0.5832095605579533,1.2928175762537224
9705,945713.6467921393,945713.6761037083,right,0.03275370970368385,-0.014170543290674686,-0.00783473625779152,-0.10720838606357574,0.5493093729019165,0.8287131786346436,-0.05353521555662155,-0.16743655502796173,-0.14770729839801788,-0.1235562402757741,0.562282569187082,-0.7734305468556885,0.2652870406855249,-3.0129400584086334,-0.5815373713217914,1.2957808914423206
9706,945713.6667921393,945713.69412875,right,0.022958140820264816,-0.016124509274959564,-0.0018626658711582422,-0.10604560375213623,0.5482279062271118,0.8295786380767822,-0.03423339128494263,-0.178462952375412,-0.17962807416915894,-0.12425602558507791,0.5640822395212007,-0.7723991665983628,0.26414227925913114,-3.0144516801508106,-0.5802437246723509,1.2995493479538427
9707,945713.6867921393,945713.7367144168,right,0.00924666877835989,-0.01705136150121689,0.005288174841552973,-0.104954294860363,0.5474242568016052,0.8302475810050964,-0.012119272723793983,-0.19456586241722107,-0.19781319797039032,-0.1250931486230918,0.5660820232097948,-0.7711516488691141,0.2631117806788009,-3.01584657824966,-0.5792830956944842,1.3039800422105041
9708,945713.7067921393,945713.7371661251,right,-0.004717718809843063,-0.013552992604672909,0.014369301497936249,-0.10368115454912186,0.5469737648963928,0.830704391002655,0.009090826846659184,-0.21158786118030548,-0.20698203146457672,-0.12616693017888417,0.5681862062644271,-0.7697509563080162,0.2621633606699494,-3.0174238048877267,-0.5787448436741188,1.3087504209456702
9709,945713.7267921394,945713.7703863333,right,-0.015491824597120285,-0.006828104145824909,0.023812612518668175,-0.10237076878547668,0.5467510223388672,0.8310137987136841,0.017685694620013237,-0.21125856041908264,-0.223149836063385,-0.12736789331383597,0.5703808061504682,-0.7682268961430926,0.26128638919319275,-3.0190225460667155,-0.5784787888429623,1.3138378197812215
9710,945713.7467921394,945713.7731005833,right,-0.022060871124267578,-0.0029233216773718596,0.0310708936303854,-0.10150372236967087,0.5465855002403259,0.8312289118766785,0.02286626771092415,-0.1934385746717453,-0.24715347588062286,-0.12844727140121054,0.5726942545143836,-0.7665739690123794,0.26055108796249393,-3.020081577813036,-0.5782811712776816,1.3194502867014297
9711,945713.7667921394,945713.79509525,right,-0.028111794963479042,-0.005373623687773943,0.031267374753952026,-0.10118982940912247,0.5464206337928772,0.8313755393028259,0.02606000378727913,-0.17784784734249115,-0.2599174380302429,-0.12933879699304937,0.5751211861295341,-0.7648027943384326,0.2599686880406319,-3.0204748414751226,-0.578084302520335,1.3255991051950982
9712,945713.7867921394,945713.8181582917,right,-0.02873595431447029,-0.0102744335308671,0.021834079176187515,-0.10101298242807388,0.5463128089904785,0.8314676880836487,0.029869310557842255,-0.18006053566932678,-0.25299060344696045,-0.1301838112188963,0.5775136527133652,-0.7630280171257864,0.2594575918963391,-3.020697722444117,-0.5779555426189449,1.3317497409749939
9713,945713.8067921394,945713.8571080834,right,-0.02405872941017151,-0.01621163822710514,0.00805090181529522,-0.10073082894086838,0.5463237762451172,0.8314949870109558,0.029480595141649246,-0.18338416516780853,-0.24199099838733673,-0.1310973123777685,0.5798512722908117,-0.7612620496570306,0.25897112531641614,-3.0210360635138422,-0.5779686585895701,1.3377728205017367
9714,945713.8267921394,945713.8573700418,right,-0.015066783875226974,-0.020575260743498802,-0.006055366713553667,-0.10050377994775772,0.5463702082633972,0.831492006778717,0.030810032039880753,-0.169539675116539,-0.24770349264144897,-0.1319813370202028,0.5821281335591886,-0.7595214062094483,0.2585246162843706,-3.0213047649700746,-0.5780240491884825,1.343686208333171
9715,945713.8467921395,945713.874405,right,-0.004112078808248043,-0.025710484012961388,-0.020937683060765266,-0.10081419348716736,0.5463507175445557,0.8314670920372009,0.028630942106246948,-0.1361454576253891,-0.2649896442890167,-0.13263335427047895,0.5844317275894911,-0.7577420502151059,0.2582147304959306,-3.020933244657717,-0.5780008151664526,1.3498789242731477
9716,945713.8667921395,945713.8942189168,right,0.008898083120584488,-0.027143066748976707,-0.027986859902739525,-0.10204409807920456,0.5461770296096802,0.8314311504364014,0.0232880637049675,-0.09448730200529099,-0.29261475801467896,-0.13289479742973295,0.5868412302026568,-0.7558656319264762,0.2581150784874279,-3.019470515651214,-0.5777934728495999,1.3566842509985193
9717,945713.8867921395,945713.9192712917,right,0.014023853465914726,-0.022321254014968872,-0.021517876535654068,-0.10418542474508286,0.5459856390953064,0.831291139125824,0.0375060997903347,-0.06408901512622833,-0.3063238263130188,-0.13280857249798034,0.5893120073228048,-0.7538944562440243,0.2582948762771805,-3.0169132801911673,-0.5775649951370506,1.3640370443135266
9718,945713.9067921395,945713.9351255001,right,0.012468945235013962,-0.023540537804365158,-0.02111867628991604,-0.10634221136569977,0.5461981296539307,0.830878496170044,0.06820005923509598,-0.08511953800916672,-0.281376451253891,-0.13283924948203474,0.5916746903959604,-0.7519043908476746,0.25867835123038063,-3.0142972104344814,-0.5778186538487811,1.3712876957558142
9719,945713.9267921395,945713.9716607501,right,0.009843056090176105,-0.026610642671585083,-0.018023855984210968,-0.10723989456892014,0.5470873713493347,0.8301777243614197,0.10781317949295044,-0.14504636824131012,-0.22206605970859528,-0.1335458425684961,0.593770379962966,-0.7500170011456518,0.25899155300505555,-3.0131272016755406,-0.5788806117526458,1.3775945580742606
9720,945713.9467921396,945713.9744492084,right,0.013092872686684132,-0.02143860049545765,-0.004751256667077541,-0.10638920217752457,0.5487223863601685,0.8292076587677002,0.14120198786258698,-0.20603850483894348,-0.17293843626976013,-0.1351195511321705,0.5955168510912756,-0.7483070462579959,0.25911176866950614,-3.0139877406162454,-0.5808350858539555,1.382556620728795
9721,945713.9667921396,945713.99958675,right,0.019828995689749718,-0.01202700287103653,0.0112729761749506,-0.10449257493019104,0.5509681701660156,0.8279585838317871,0.16698014736175537,-0.23064368963241577,-0.16398422420024872,-0.13729560820196202,0.5971069561895965,-0.7466207136509971,0.25917290691338185,-3.0160514815770325,-0.583523789852602,1.3869212207497768
9722,945713.9867921396,945714.0318184167,right,0.023938141763210297,-0.013392936438322067,0.018272722139954567,-0.10254237800836563,0.5536757707595825,0.82639479637146,0.19226722419261932,-0.2355712205171585,-0.183113694190979,-0.13969834932117667,0.5987535824151402,-0.7447761067909845,0.25939735214440085,-3.018139841819907,-0.5867717861091458,1.3916133124111392
9723,945714.0067921396,945714.034820375,right,0.021268943324685097,-0.023350492119789124,0.016190020367503166,-0.10058470815420151,0.5567288994789124,0.8245823383331299,0.2205428034067154,-0.2562711536884308,-0.1912323385477066,-0.14227331818435499,0.6004745739700077,-0.7427794904082757,0.25974450202882055,-3.0202099048900166,-0.5904426664546423,1.3966574752539151
9724,945714.0267921396,945714.0706258334,right,0.016973203048110008,-0.03660589084029198,0.0153250927105546,-0.09813398867845535,0.5601633191108704,0.822549045085907,0.24647283554077148,-0.2985021471977234,-0.18771806359291077,-0.14522751418892707,0.6022644265156447,-0.740642972307948,0.2600662383009508,-3.022849379078715,-0.5945827908058866,1.4018513265786687
9725,945714.0467921396,945714.0748790418,right,0.013537971302866936,-0.04617210850119591,0.019822459667921066,-0.09490013867616653,0.5640373826026917,0.8202778697013855,0.272555947303772,-0.3465021252632141,-0.1859574019908905,-0.14869915507940232,0.6041169761131805,-0.7383640836403342,0.26028749704115367,-3.026412237677978,-0.5992668735095157,1.4070791750235614
9726,945714.0667921397,945714.1066200001,right,0.010106772184371948,-0.05405270680785179,0.02422555349767208,-0.09091327339410782,0.5681840181350708,0.8178642392158508,0.2845613658428192,-0.3969373106956482,-0.19346202909946442,-0.152627728220793,0.6060762850687179,-0.7359372126658827,0.26033187088471116,-3.030887955811428,-0.6042972419521428,1.4124030931095277
9727,945714.0867921397,945714.1325565,right,0.008899458684027195,-0.0567036047577858,0.028724242001771927,-0.08623867481946945,0.5724226236343384,0.8154112696647644,0.28067538142204285,-0.44497448205947876,-0.20787084102630615,-0.1569366050593829,0.6081997661422703,-0.7333475236617503,0.26012558187811236,-3.0362235939536095,-0.6094572546729656,1.4179312691891304
9728,945714.1067921397,945714.1347109583,right,0.011092289350926876,-0.04833695665001869,0.03565558046102524,-0.08125675469636917,0.5764303803443909,0.8130963444709778,0.2632046341896057,-0.47182124853134155,-0.23844276368618011,-0.16138280233424873,0.6105951722824923,-0.7305625360314945,0.25962949595566287,-3.041988589930621,-0.6143534122091081,1.423989607887662
9729,945714.1267921397,945714.1562843334,right,0.01705041527748108,-0.03671715781092644,0.03939121961593628,-0.0765971764922142,0.5799581408500671,0.8110374212265015,0.2301994413137436,-0.47285062074661255,-0.29255080223083496,-0.16564900479020753,0.6133607987379569,-0.7275349862095568,0.25892418319031,-3.0474287056124636,-0.6186771530945449,1.431025272315227
9730,945714.1467921397,945714.1991048751,right,0.02033654972910881,-0.02172160893678665,0.03970654308795929,-0.07277826219797134,0.5827734470367432,0.8093689680099487,0.18950292468070984,-0.4654098153114319,-0.34836530685424805,-0.169463660690938,0.6165864944146485,-0.724227510095974,0.2580648257139382,-3.051914276672494,-0.622137259087204,1.43942845609406
9731,945714.1667921398,945714.1992524584,right,0.023656662553548813,-0.006743998266756535,0.04006892442703247,-0.06899353116750717,0.5856067538261414,0.8076538443565369,0.14880642294883728,-0.45796895027160645,-0.40417978167533875,-0.17327215063942447,0.6197896338003038,-0.7208936437699749,0.2571960860118031,-3.0563751119899703,-0.6256282102559416,1.4478336706696913
9732,945714.1867921398,945714.1997892917,right,0.006484051235020161,0.004940950311720371,0.03516553342342377,-0.06615933030843735,0.5871961116790771,0.8067364692687988,0.11676164716482162,-0.48457837104797363,-0.3882964551448822,-0.17641063509423058,0.6236104420452038,-0.7172713293831816,0.2559512417308008,-3.0597673606120903,-0.6275903711987575,1.4578892745660061
9733,945714.2067921398,945714.2173825834,right,0.0036445281002670527,0.012729492038488388,0.04627720266580582,-0.06247769296169281,0.5882523059844971,0.8062602877616882,0.08328983187675476,-0.5203890204429626,-0.3743848204612732,-0.17966535489018295,0.6274760602616674,-0.7137253405794317,0.2541459095323153,-3.064256684541388,-0.6288957935578061,1.467521917323552
9734,945714.2267921398,945714.2363106668,right,0.02369755133986473,0.02522030472755432,0.06755831092596054,-0.058500539511442184,0.5888856053352356,0.8060962557792664,0.06735971570014954,-0.5100609660148621,-0.3848431706428528,-0.1828438542485856,0.6313347014466373,-0.7102566717657306,0.2520315251545896,-3.0691472190486744,-0.629679165767362,1.4768799486531947
9735,945714.2467921398,945714.2776208334,right,0.02824028581380844,0.019642602652311325,0.05777541175484657,-0.05479658022522926,0.5893474221229553,0.8060191869735718,0.046948786824941635,-0.5095065832138062,-0.39428457617759705,-0.18586748848339557,0.6352869581577949,-0.7066965374117662,0.24988724892580488,-3.0737130987187893,-0.6302506727113664,1.4866080425359691
9736,945714.2667921399,945714.2777401251,right,0.030229544267058372,0.008086685091257095,0.028368521481752396,-0.05101031810045242,0.5894484519958496,0.8061938881874084,0.030361277982592583,-0.5292297601699829,-0.3964327871799469,-0.18876977009829587,0.6392799128409212,-0.7031486582917357,0.2475258111010079,-3.078404081675774,-0.6303757445607031,1.496323087408071
9737,945714.2867921399,945714.2999487501,right,0.03733012080192566,0.0017107524909079075,0.009264228865504265,-0.0470280796289444,0.589776337146759,0.8061962127685547,0.042435601353645325,-0.5439944267272949,-0.3880634605884552,-0.1918346888387425,0.6432727695846633,-0.6994985036829191,0.24515576373042883,-3.083325601383318,-0.6307817371479773,1.506115587969105
9738,945714.3067921399,945714.3264472084,right,0.04543157294392586,-0.005686669610440731,-0.012472379952669144,-0.04250422492623329,0.5904159545898438,0.8059794306755066,0.06902411580085754,-0.5639756917953491,-0.35545435547828674,-0.19517894954481074,0.6471140298928569,-0.6958685692901903,0.24272525485186042,-3.088905558586874,-0.6315739528060105,1.515439340043945
9739,945714.3267921399,945714.3363822084,right,0.049856387078762054,-0.0016014404827728868,-0.02746594324707985,-0.03690337389707565,0.5913359522819519,0.8055803179740906,0.0962369367480278,-0.5967217087745667,-0.3095099925994873,-0.19894230823758088,0.6506597291282914,-0.6924102589815347,0.2400660197515671,-3.0958151933112648,-0.6327143403275486,1.5236319417971294
9740,945714.3467921399,945714.3701270834,right,0.04751143604516983,0.011805186979472637,-0.028158146888017654,-0.0305152777582407,0.5927321314811707,0.8048213720321655,0.11860667914152145,-0.6087911128997803,-0.27439990639686584,-0.20310937954909053,0.6539254748581311,-0.6890515729610722,0.23735179575549017,-3.10369543266186,-0.634446791817177,1.5309407140478342
9741,945714.36679214,945714.4004496668,right,0.04271864518523216,0.024011055007576942,-0.03277624398469925,-0.02398465760052204,0.5944374203681946,0.8037844896316528,0.1188916340470314,-0.5909874439239502,-0.2755381166934967,-0.20739789765334038,0.6570047374231912,-0.6857382326959107,0.23472114833352,-3.1117620602395553,-0.6365657570985221,1.5378340955421974
9742,945714.38679214,945714.4008807084,right,0.02652742713689804,0.035904303193092346,-0.03373744338750839,-0.018509196117520332,0.5961992740631104,0.802623450756073,0.10875005275011063,-0.5305867791175842,-0.32418403029441833,-0.211326188573434,0.6601322014981473,-0.6823028002230438,0.23244277066497765,-3.118536088751969,-0.6387584642859885,1.5453940687303238
9743,945714.40679214,945714.4403098751,right,0.0008500467520207167,0.05451345071196556,-0.016044966876506805,-0.0147186778485775,0.5978570580482483,0.8014674186706543,0.10299704968929291,-0.44902536273002625,-0.36670926213264465,-0.21461573244333107,0.6633907574376041,-0.6787092972645471,0.23066486826094143,-3.123230276572213,-0.6408250010412905,1.5540630106458446
9744,945714.42679214,945714.4405964167,right,-0.03156740590929985,0.0782078430056572,-0.002295727375894785,-0.012548627331852913,0.5992075204849243,0.8004952073097229,0.09060857445001602,-0.37734290957450867,-0.3994012773036957,-0.21719515148437907,0.6667631759307598,-0.6750365801509346,0.2293001496117111,-3.1259180782572966,-0.6425107709759299,1.563680774687422
9745,945714.44679214,945714.4564756667,right,-0.06753277778625488,0.09193750470876694,0.0009622366051189601,-0.012197719886898994,0.6008098721504211,0.7992990612983704,0.10699853301048279,-0.2798866033554077,-0.4080910384654999,-0.21916576842244906,0.6699858496315475,-0.6713928779874591,0.2287288694498864,-3.126333538918683,-0.644513737261074,1.5737934452702442
9746,945714.46679214,945714.4765829584,right,-0.08581539243459702,0.08775847405195236,-0.012704959139227867,-0.013225877657532692,0.6027458906173706,0.7978233098983765,0.12160933017730713,-0.19742698967456818,-0.3839511573314667,-0.2206972096742169,0.6729334491077228,-0.667886320617019,0.2288688367023137,-3.1250169428757437,-0.6469377940147331,1.5838814366721325
9747,945714.4867921401,945714.5181181667,right,-0.09779137372970581,0.0783475786447525,-0.015205349773168564,-0.014994845725595951,0.6049647927284241,0.7961108684539795,0.1535438746213913,-0.12781047821044922,-0.33782076835632324,-0.2219376563449253,0.6753986066368253,-0.66474962762901,0.22953897908891807,-3.1227599813425377,-0.6497214956438593,1.5930308688988972
9748,945714.5067921401,945714.5182224168,right,-0.10319606214761734,0.07144023478031158,-0.009664570912718773,-0.017328975722193718,0.6075101494789124,0.7941226363182068,0.1803739070892334,-0.0608205609023571,-0.2948589026927948,-0.22295837326406592,0.6773332754561722,-0.6620278312077672,0.23071219328435127,-3.119774802637967,-0.6529220764085246,1.6010371318632497
9749,945714.5267921401,945714.5364065417,right,-0.11553769558668137,0.0800216868519783,0.012448446825146675,-0.020479336380958557,0.6105281710624695,0.7917293310165405,0.21636754274368286,0.009217736311256886,-0.28262996673583984,-0.22377898965053786,0.6788526994993871,-0.6595631772888053,0.2325039853466166,-3.1157320572115035,-0.656727188186829,1.608429449585128
9750,945714.5467921401,945714.5796218334,right,-0.18184329569339752,0.08662822842597961,0.025483662262558937,-0.023861363530158997,0.614196240901947,0.7887927293777466,0.2551550269126892,-0.011362253688275814,-0.22988271713256836,-0.22473010072008642,0.6800395463221587,-0.6572233200479916,0.23473407444934505,-3.1113516139647714,-0.6613669097741196,1.6152988682028138
9751,945714.5667921401,945714.5805280834,right,-0.2910095453262329,0.07918531447649002,0.04673754796385765,-0.025733597576618195,0.6181454062461853,0.7856422662734985,0.24078981578350067,-0.08090601861476898,-0.18401287496089935,-0.22628760521997035,0.680950068950435,-0.6550786582260629,0.23658546407496042,-3.1088497316270125,-0.666381027263572,1.6208530732276574
9752,945714.5867921402,945714.6052797501,right,-0.3859822154045105,0.06897196918725967,0.11230505257844925,-0.027811681851744652,0.6213774681091309,0.7830177545547485,0.15199334919452667,0.00490351440384984,-0.3259463310241699,-0.22753557290249327,0.6821244282160213,-0.6528514627266626,0.2381569608644061,-3.1060892189124485,-0.6704994453399857,1.6270152273772442
9753,945714.6067921402,945714.635156,right,-0.45870593190193176,0.07371202111244202,0.2560051679611206,-0.036593154072761536,0.622760534286499,0.7815563082695007,0.03750305622816086,0.3741079568862915,-0.6815449595451355,-0.22598616494015675,0.6846596301452762,-0.6496300766240752,0.24114740798865061,-3.094806162927156,-0.6722658662650827,1.6396402011920546
9754,945714.6267921402,945714.6382764167,right,-0.5493585467338562,0.07769548892974854,0.4009022116661072,-0.05744366720318794,0.6217502951622009,0.7811058163642883,-0.029470812529325485,0.8705834746360779,-1.072273850440979,-0.21968319604022274,0.6889056217107203,-0.6449510505877566,0.24735847983512643,-3.0681835603199867,-0.6709753606931599,1.6622836433324741
9755,945714.6467921402,945714.6575095,right,-0.7308191061019897,0.035028766840696335,0.47731757164001465,-0.08733460307121277,0.6194499135017395,0.7801628708839417,-0.028405435383319855,1.063721776008606,-1.1884695291519165,-0.21010443227072761,0.6939119297236028,-0.6391929185554072,0.2564655019949348,-3.030112930251815,-0.6680416620535959,1.6915639530781255
9756,945714.6667921402,945714.6872777501,right,-0.9123777747154236,-0.049676019698381424,0.5000727772712708,-0.11640280485153198,0.6170961856842041,0.7782303690910339,0.03360842540860176,0.873594343662262,-0.9982175230979919,-0.20089805325244434,0.6984092525081732,-0.633513688909179,0.26556488404669554,-2.9931198438881705,-0.66504697451182,1.7195232426572362
9757,945714.6867921402,945714.7012588334,right,-0.9764914512634277,-0.1050533801317215,0.513236403465271,-0.13935714960098267,0.6158270835876465,0.7754588723182678,0.08614034205675125,0.6671438813209534,-0.8538178205490112,-0.19415966598168302,0.7019846082048773,-0.6284480559935269,0.27307968789292636,-2.9637815485430545,-0.6634351767753726,1.7426178361192148
9758,945714.7067921403,945714.7173165417,right,-0.8997215032577515,-0.09157845377922058,0.5379538536071777,-0.16187255084514618,0.6141579151153564,0.7724036574363708,0.025172362104058266,0.8432912230491638,-1.0375289916992188,-0.1875982582557787,0.7056284447620658,-0.6231293958663886,0.28036591610186795,-2.935012640256267,-0.6613183717351501,1.7659459320710418
9759,945714.7267921403,945714.7423651251,right,-0.7513948082923889,-0.03521052747964859,0.5703787207603455,-0.19410447776317596,0.608364462852478,0.7695558667182922,-0.23751327395439148,1.3853002786636353,-1.5210622549057007,-0.17662987637614175,0.7104547242330298,-0.6164673094416797,0.2898688354051936,-2.894517200330742,-0.6539980991503095,1.796403394926383
9760,945714.7467921403,945714.7573910417,right,-0.6140584349632263,0.053450584411621094,0.6376869678497314,-0.24308118224143982,0.5943418741226196,0.7665961980819702,-0.5522375702857971,2.1571242809295654,-2.1018550395965576,-0.1576036783895279,0.7169786738276521,-0.6076508712527733,0.3030892092533166,-2.834530387621406,-0.636446956591535,1.8373585669060968
9761,945714.7667921403,945714.7897593334,right,-0.5385571718215942,0.10548606514930725,0.6729999780654907,-0.30821675062179565,0.5703195929527283,0.761405348777771,-0.8963738083839417,2.739736557006836,-2.547426223754883,-0.13014629808839806,0.7243861447426081,-0.5966299600688229,0.3199363321877565,-2.7569555343940295,-0.6068948257451715,1.8854106677360896
9762,945714.7867921403,945714.8045410834,right,-0.5281448364257812,0.16597744822502136,0.7165494561195374,-0.38085830211639404,0.5363042950630188,0.7532097101211548,-1.1437277793884277,2.9445180892944336,-2.6833748817443848,-0.09692640895298417,0.7316931128648377,-0.58414891640948,0.3376395097971257,-2.6734377070417445,-0.5660522992325819,1.9325975963238526
9763,945714.8067921404,945714.81736025,right,-0.5122734308242798,0.2311437875032425,0.7476012706756592,-0.451592355966568,0.49511978030204773,0.742240309715271,-1.3540301322937012,2.837312698364258,-2.594503402709961,-0.0616470335976593,0.7380339965474803,-0.571336945890385,0.3536656804611928,-2.5950065709357086,-0.5179726591327016,1.9723100860994573
9764,945714.8267921404,945714.837206125,right,-0.43025824427604675,0.3239349126815796,0.764805257320404,-0.5154997706413269,0.44983208179473877,0.7293224930763245,-1.5028884410858154,2.6528875827789307,-2.3914222717285156,-0.02650751217139,0.7428585931057179,-0.5593051832313065,0.36692793493037035,-2.5263042182168105,-0.4665772891928301,2.001581429644487
9765,945714.8467921404,945714.8623222084,right,-0.31176307797431946,0.40014925599098206,0.7325015068054199,-0.5724220871925354,0.4024263918399811,0.714413046836853,-1.626634120941162,2.5247302055358887,-2.2033488750457764,0.007944335678286545,0.7460499470322625,-0.5482845400646051,0.3777966516256148,-2.466091256118472,-0.41416578271154375,2.021344155575966
9766,945714.8667921404,945714.8795579583,right,-0.19662879407405853,0.46715569496154785,0.6829147338867188,-0.6241937875747681,0.3525649309158325,0.6971942782402039,-1.7805390357971191,2.4994943141937256,-2.16038179397583,0.04249081327671692,0.7478187814674514,-0.5379258003602266,0.38677804775044283,-2.411383796883232,-0.360310620889412,2.033444975249015
9767,945714.8867921404,945714.8996434167,right,-0.05938886106014252,0.5367467999458313,0.6665410399436951,-0.673622727394104,0.29857632517814636,0.6760805249214172,-1.9188729524612427,2.6093266010284424,-2.269838809967041,0.07852077213034818,0.7484563729972126,-0.5271179017755611,0.3947077898080905,-2.358015569210943,-0.3032006016246097,2.040483929829009
9768,945714.9067921404,945714.9312759584,right,0.05409740284085274,0.5959718823432922,0.6426759362220764,-0.7215701341629028,0.2394208461046219,0.6496265530586243,-2.027587413787842,2.715634346008301,-2.4075241088867188,0.11664535965969762,0.7481238252205417,-0.5149019017392504,0.4019709470146116,-2.303774894354468,-0.24176932373342763,2.0440628873974793
9769,945714.9267921405,945714.9373415001,right,0.1470482051372528,0.6513059735298157,0.6264891028404236,-0.7661604285240173,0.1772313117980957,0.6177276372909546,-2.0349483489990234,2.709704875946045,-2.418978214263916,0.15565565419882085,0.7466468660927496,-0.5013803421623655,0.4085431034565184,-2.2493452633310893,-0.17817254885674758,2.04428829622547
9770,945714.9467921405,945714.9695034584,right,0.23005296289920807,0.6869779825210571,0.5935564637184143,-0.8049151301383972,0.1163518950343132,0.5818706750869751,-1.901787281036377,2.577388286590576,-2.2699718475341797,0.19326184054137976,0.7439277307416282,-0.4873467327270482,0.41438424580757566,-2.196724717777331,-0.11661606825507682,2.0413332709874545
9771,945714.9667921405,945714.9946408333,right,0.29595208168029785,0.6843582987785339,0.5346641540527344,-0.8366578817367554,0.0608050562441349,0.5443400144577026,-1.682180404663086,2.3682472705841064,-2.0377604961395264,0.2274242777257437,0.7401944615925466,-0.47358435506915286,0.4196522501957377,-2.147602011186569,-0.06084263010326947,2.0362433459559504
9772,945714.9867921405,945714.9989159583,right,0.38244590163230896,0.6745995879173279,0.46573585271835327,-0.8621989488601685,0.011672433465719223,0.5064351558685303,-1.4373059272766113,2.239672899246216,-1.8321644067764282,0.25774216333740735,0.735766376802831,-0.46028839095041074,0.42467779577844106,-2.1018820020464655,-0.011672748319070217,2.0302261310524177
9773,945715.0067921405,945715.0264065834,right,0.4915710389614105,0.6573734879493713,0.36159583926200867,-0.883560836315155,-0.03292933478951454,0.4671575129032135,-1.2812445163726807,2.249518394470215,-1.7555502653121948,0.28550155698306606,0.7306903042883751,-0.4468449720562263,0.4300117305822412,-2.057156229215632,0.03293523360271223,2.024029212829296
9774,945715.0267921406,945715.0424178333,right,0.5971811413764954,0.6378001570701599,0.24016152322292328,-0.901977002620697,-0.07619576156139374,0.4250076413154602,-1.2494049072265625,2.323568105697632,-1.776010513305664,0.3125471329856982,0.7248466100165512,-0.4325519635778946,0.4356722312557819,-2.0111361351565558,0.07626962402077445,2.0171517074326384
9775,945715.0467921406,945715.0623783334,right,0.6892893314361572,0.5970941781997681,0.12693633139133453,-0.9174672961235046,-0.11774473637342453,0.3799867331981659,-1.28421151638031,2.331294059753418,-1.7007129192352295,0.33911398331772796,0.7178557495836732,-0.4179431565733813,0.44159733955784997,-1.9634576328222755,0.1180184497206748,2.008208652334986
9776,945715.0667921406,945715.0862043333,right,0.7671633958816528,0.5609220266342163,0.013884609565138817,-0.9295153021812439,-0.15635553002357483,0.3339970111846924,-1.2848049402236938,2.2461495399475098,-1.4966576099395752,0.3647877369420672,0.7096922256970093,-0.40414780184428756,0.447136640317865,-1.9157532520458505,0.1569996446115381,1.9957285481458191
9777,945715.0867921406,945715.1034019584,right,0.8139969110488892,0.5256254076957703,-0.0631936639547348,-0.938268780708313,-0.1896243393421173,0.2892994284629822,-1.2757441997528076,2.0448319911956787,-1.1844500303268433,0.38850303225202953,0.7005523945133438,-0.39227038645020196,0.45212333540897487,-1.8698806701400676,0.19077945743638577,1.9796873873623781
9778,945715.1067921406,945715.1512994167,right,0.8679486513137817,0.49300047755241394,-0.09784924983978271,-0.9443833231925964,-0.21245115995407104,0.25100675225257874,-1.1571598052978516,1.7865123748779297,-0.8793610334396362,0.4076014553390309,0.6911552416465438,-0.3844578221354742,0.4564618680663287,-1.8305792541607209,0.2140826336152602,1.9614567141074966
9779,945715.1267921407,945715.1513490834,right,0.9201310276985168,0.4595548212528229,-0.1317894011735916,-0.948728621006012,-0.23445746302604675,0.2119988352060318,-1.0385754108428955,1.5281928777694702,-0.574272096157074,0.426482706848194,0.6813898263199517,-0.3764403430288444,0.4605571112967427,-1.7906404711828958,0.2366603738269478,1.9422024764301222
9780,945715.1467921407,945715.1621126251,right,0.9949068427085876,0.4281403422355652,-0.1809363216161728,-0.9522019028663635,-0.2463058978319168,0.1806795597076416,-0.8321793675422668,1.254164457321167,-0.24061192572116852,0.4402108729401925,0.6723150219850167,-0.37193051112473646,0.4646229845533175,-1.7583162720689889,0.24886680836254585,1.9245665718304465
9781,945715.1667921407,945715.1785350417,right,1.016983985900879,0.4038843810558319,-0.21140199899673462,-0.9555141925811768,-0.2504173517227173,0.1558321714401245,-0.6009330153465271,0.9635211229324341,0.08022529631853104,0.44958798609895523,0.664221228492711,-0.3697651496707956,0.46899292597951386,-1.7324603743666833,0.25311125433970977,1.9101685594993336
9782,945715.1867921407,945715.2224371667,right,1.0353360176086426,0.3787475526332855,-0.22121085226535797,-0.9590467810630798,-0.24738970398902893,0.137940913438797,-0.3288153409957886,0.6519635319709778,0.383700966835022,0.454567059450509,0.65745184544638,-0.36976688102615013,0.4737069133226292,-1.7136479488635583,0.24998523012282514,1.9000457108864737
9783,945715.2067921407,945715.2232070417,right,1.0563167333602905,0.358273983001709,-0.24187587201595306,-0.9629428386688232,-0.23773688077926636,0.12736603617668152,-0.05799270421266556,0.35610291361808777,0.6479663848876953,0.45512777099115664,0.6522591575488602,-0.3718077837629509,0.4787227539279575,-1.7023005484057725,0.2400352033369551,1.8947980777650262
9784,945715.2267921407,945715.2388265834,right,1.0888307094573975,0.32798153162002563,-0.25047987699508667,-0.9669636487960815,-0.22322428226470947,0.12309328466653824,0.2091130018234253,0.13561305403709412,0.810810387134552,0.45196926778995367,0.6486689174211098,-0.3752003442825102,0.48391826996000387,-1.6974141401176464,0.22512091558752834,1.8943297187020427
9785,945715.2467921408,945715.2763118334,right,1.1108627319335938,0.30016934871673584,-0.25384730100631714,-0.9707605242729187,-0.20587573945522308,0.12344713509082794,0.4437800943851471,-0.02387358993291855,0.8793516755104065,0.4458516989726822,0.6466931123329586,-0.3788292576926083,0.4893797830134868,-1.6972828774269084,0.20735847845320104,1.8989689435121657
9786,945715.2667921408,945715.2786788751,right,1.11455500125885,0.2726702094078064,-0.25680139660835266,-0.9740707874298096,-0.18683019280433655,0.1275949627161026,0.6996102333068848,-0.1888124793767929,0.9339513778686523,0.437256161363098,0.6463081334304218,-0.38220845270367865,0.49498419251785497,-1.7010462670234892,0.18793447809957628,1.9084565031645284
9787,945715.2867921408,945715.3001982918,right,1.0832479000091553,0.23753485083580017,-0.2526024281978607,-0.9767323136329651,-0.16522835195064545,0.13672415912151337,0.9658329486846924,-0.4576428532600403,1.0634350776672363,0.42570311684714096,0.6476600865337424,-0.3858736947032181,0.5004144340974455,-1.7098738790348802,0.1659894903377456,1.9224932687958631
9788,945715.3067921408,945715.3299199167,right,1.034802794456482,0.20338906347751617,-0.22448109090328217,-0.9784190654754639,-0.1394406408071518,0.1524876356124878,1.2149814367294312,-0.8075558543205261,1.25527024269104,0.41041926034751836,0.6508564159794452,-0.39067858759549834,0.5052841876673515,-1.725403648973741,0.1398964652521294,1.9405469988716226
9789,945715.3267921408,945715.3460889584,right,0.9873866438865662,0.168836310505867,-0.2077663093805313,-0.9785075783729553,-0.10869528353214264,0.17523831129074097,1.3836402893066406,-1.175473928451538,1.430523157119751,0.3911292263686781,0.6558009835192782,-0.3969184307692198,0.5093119874726681,-1.7480051597416075,0.10891041174058044,1.9618966568898342
9790,945715.3467921409,945715.3588448334,right,0.9504902362823486,0.14131487905979156,-0.19482451677322388,-0.9762360453605652,-0.07385513186454773,0.20373669266700745,1.502038836479187,-1.472412109375,1.5386414527893066,0.3685179658741353,0.6621219049049887,-0.4043055067297619,0.5121777342469727,-1.776539464138578,0.07392238500547597,1.9851106563633807
9791,945715.3667921409,945715.388572375,right,0.8873181939125061,0.13402672111988068,-0.15645237267017365,-0.9709797501564026,-0.036524392664432526,0.23635688424110413,1.5638868808746338,-1.7085027694702148,1.60124671459198,0.34366998849726194,0.6693950802045976,-0.4124180847925897,0.5135294432118802,-1.8095735415834737,0.03653246574404676,2.0085293903684853
9792,945715.3867921409,945715.4248592501,right,0.8181880116462708,0.13795627653598785,-0.0977834016084671,-0.9623552560806274,0.002760626608505845,0.27178114652633667,1.5854202508926392,-1.889298915863037,1.6240308284759521,0.31721511358409415,0.6771423424807385,-0.4211517892075594,0.5133069102323604,-1.8460407842396174,-0.0027606806553590584,2.0308689366524977
9793,945715.4067921409,945715.4256209168,right,0.747715175151825,0.1400732547044754,-0.07021128386259079,-0.950318455696106,0.04237540811300278,0.3083817660808563,1.4971778392791748,-1.9975396394729614,1.5544275045394897,0.29013052885488877,0.6850520342423223,-0.42999371870438213,0.5115010462430216,-1.8845792542640742,-0.042388148394918085,2.0513548388239156
9794,945715.4267921409,945715.4451146667,right,0.6812686920166016,0.16248278319835663,-0.01262589916586876,-0.935332179069519,0.0795256569981575,0.34471678733825684,1.3471239805221558,-2.0225157737731934,1.3949211835861206,0.26403279793489226,0.6928703569827668,-0.43850776271385195,0.5078663831458188,-1.923900411313151,-0.07960976897331941,2.068612108253132
9795,945715.446792141,945715.4633497917,right,0.588871419429779,0.1938333511352539,0.07580658793449402,-0.9180634021759033,0.11314801871776581,0.3799440562725067,1.1901345252990723,-2.032027006149292,1.2539154291152954,0.23955762388440743,0.7004909086167789,-0.44641293459793263,0.5026332157530489,-1.9631883693419956,-0.11339089347295643,2.082657511415039
9796,945715.466792141,945715.4849599584,right,0.48817408084869385,0.22014079988002777,0.1343403160572052,-0.898658812046051,0.14393509924411774,0.41436147689819336,1.050755500793457,-2.07328462600708,1.1792539358139038,0.21645932622726624,0.7078291384292578,-0.45404694776910676,0.49594824846032426,-2.002833349773508,-0.1444368232977209,2.0934384647329143
9797,945715.486792141,945715.5362913334,right,0.3816041052341461,0.2260921597480774,0.1830509901046753,-0.8754068613052368,0.17329265177249908,0.45125672221183777,0.9337928295135498,-2.257481575012207,1.2333061695098877,0.19371379611594353,0.7152051765545783,-0.46272010514394,0.48666883311168263,-2.046752953273035,-0.17417196275797772,2.099437933381127
9798,945715.506792141,945715.5363447918,right,0.272705614566803,0.23197001218795776,0.2333974391222,-0.8498265147209167,0.20272380113601685,0.4865161180496216,0.8168300986289978,-2.441678524017334,1.2873584032058716,0.1708262991943749,0.722056822129878,-0.47105411580575013,0.4770326942397074,-2.0907413594552757,-0.20413871965804353,2.1041327864077184
9799,945715.526792141,945715.5394484167,right,0.19550922513008118,0.25412294268608093,0.3257018029689789,-0.818660318851471,0.23293279111385345,0.5249167680740356,0.7663608193397522,-2.6132607460021973,1.363413691520691,0.14679923843576576,0.7288767695711884,-0.48082951273155355,0.4647488602538807,-2.1409533215474896,-0.23509238130602575,2.1042300446952025
9800,945715.546792141,945715.5706277083,right,0.10376466810703278,0.25530946254730225,0.36992067098617554,-0.7827308177947998,0.2632846534252167,0.5639268755912781,0.7143784165382385,-2.7157669067382812,1.405626654624939,0.12201721234041256,0.7353514887513621,-0.49114315448999873,0.45071967017687975,-2.19512288125321,-0.26642544067682183,2.1008960341651433
9801,945715.5667921411,945715.5950163751,right,0.01457522064447403,0.24026258289813995,0.37680378556251526,-0.7429916858673096,0.2924376428127289,0.6020327806472778,0.595528781414032,-2.742604970932007,1.3736696243286133,0.09728316529689325,0.7412761057719307,-0.5015237633350775,0.4353383358406829,-2.2517754942906127,-0.29677495204809873,2.0942469510389574
9802,945715.5867921411,945715.5996382084,right,-0.0011321218917146325,0.27016401290893555,0.4427177608013153,-0.7021986842155457,0.31789910793304443,0.6370691657066345,0.5322204232215881,-2.5413894653320312,1.1821542978286743,0.07418627025948495,0.7466247288686295,-0.5109658019264811,0.4194779147408521,-2.307602167455584,-0.32351284562379223,2.085597758389567
9803,945715.6067921411,945715.6260419583,right,-0.08585794270038605,0.2738370895385742,0.48194965720176697,-0.6631096005439758,0.3397082984447479,0.6669960618019104,0.5109426975250244,-2.3545374870300293,1.0461571216583252,0.05323701263254093,0.7512876219726249,-0.5187146502234014,0.4045585984205692,-2.35911649639511,-0.3466067643293062,2.077213211583558
9804,945715.6267921411,945715.6425736668,right,-0.20937351882457733,0.24519148468971252,0.4785767197608948,-0.6237228512763977,0.36004605889320374,0.6937842965126038,0.4649861454963684,-2.3529984951019287,1.0634154081344604,0.03305131067493042,0.7552985439835803,-0.5257529869590831,0.3898915261626946,-2.4093218075288374,-0.368317259004002,2.06800146922846
9805,945715.6467921411,945715.6650515418,right,-0.20507897436618805,0.2864593267440796,0.5422330498695374,-0.5831550359725952,0.3794020414352417,0.7183203101158142,0.49813368916511536,-2.2296555042266846,1.0417590141296387,0.013239937824282854,0.7586299176098297,-0.5325793279997004,0.37505254496030466,-2.45967903460153,-0.3891499283029354,2.0570389851243465
9806,945715.6667921412,945715.6901191251,right,-0.23863720893859863,0.28766679763793945,0.5804653167724609,-0.5440877676010132,0.3984990119934082,0.7383540868759155,0.5654792785644531,-2.048544406890869,1.0147391557693481,-0.0059147722629203404,0.7610450753329134,-0.5385047594518436,0.36164599763288363,-2.506533217350617,-0.40987970334018065,2.046407574028406
9807,945715.6867921412,945715.7240460834,right,-0.3241429328918457,0.2395062893629074,0.5252021551132202,-0.5054365992546082,0.41776371002197266,0.7549883127212524,0.5674341320991516,-1.985323190689087,1.0758899450302124,-0.02478608485813307,0.7624843701895682,-0.5441614518752664,0.3491295532871784,-2.5516568759604104,-0.430982537304325,2.034726150284454
9808,945715.7067921412,945715.7244270417,right,-0.32356223464012146,0.24048523604869843,0.4864240288734436,-0.46668699383735657,0.4364434778690338,0.7692336440086365,0.5157598257064819,-1.8493866920471191,1.0731040239334106,-0.043168098978886515,0.763021816395195,-0.5499222404876065,0.336926773413742,-2.596268100371059,-0.45164197065621003,2.0209094926053206
9809,945715.7267921412,945715.7499819167,right,-0.3215858042240143,0.24709691107273102,0.492557168006897,-0.4304819703102112,0.4540122449398041,0.7801015973091125,0.48932355642318726,-1.649916410446167,1.0229440927505493,-0.060244998285880376,0.7627060994867633,-0.5552748113985793,0.3260671604682422,-2.6373471130991426,-0.47126327246412647,2.0065464973593614
9810,945715.7467921412,945715.762086375,right,-0.3835030496120453,0.1958359181880951,0.4921131134033203,-0.39611873030662537,0.4704248607158661,0.7885370850563049,0.5107961893081665,-1.5589032173156738,1.026148796081543,-0.07627216996421483,0.7617888338607829,-0.5603090604000908,0.3160918576867715,-2.6760698632189306,-0.48977215223548815,1.991601232164641
9811,945715.7667921413,945715.7801429167,right,-0.41224566102027893,0.1592680811882019,0.44366830587387085,-0.36201709508895874,0.4867701530456543,0.7949831485748291,0.5210014581680298,-1.4817975759506226,1.0396300554275513,-0.09213602308692746,0.7601954324251486,-0.5653268061266762,0.3066256273898899,-2.714276314609088,-0.508388448721562,1.9753549581847116
9812,945715.7867921413,945715.8050939584,right,-0.38884422183036804,0.14715582132339478,0.4033949077129364,-0.32967042922973633,0.5021764039993286,0.7994598746299744,0.5353165864944458,-1.3154733180999756,0.9633448719978333,-0.10716401930564809,0.7581877087593598,-0.5699835554300912,0.29796953541553123,-2.7504713611398124,-0.5261136421986101,1.9589157370977341
9813,945715.8067921413,945715.8260774168,right,-0.3983970880508423,0.12204071879386902,0.38677090406417847,-0.30044713616371155,0.5159111022949219,0.8022263646125793,0.5059219598770142,-1.174303412437439,0.849980890750885,-0.12076559173101133,0.7561109444071096,-0.5739419286893099,0.29034878528999336,-2.7832459757761074,-0.5420708276846959,1.9435992820757002
9814,945715.8267921413,945715.84102475,right,-0.4188491404056549,0.0796954482793808,0.37585943937301636,-0.2739330232143402,0.527986466884613,0.803860068321228,0.4657468795776367,-1.076757788658142,0.749782145023346,-0.1330979471359939,0.7541835332504383,-0.5771803392549067,0.28346937077134526,-2.813162435068169,-0.5562278526804966,1.9296963625628203
9815,945715.8467921413,945715.8821600417,right,-0.41354912519454956,0.03973837196826935,0.3022564649581909,-0.2501148283481598,0.5388612151145935,0.8044073581695557,0.4110446572303772,-0.9581786394119263,0.6395516395568848,-0.14432452786791286,0.7523795772099292,-0.5797659632595623,0.2774287875025148,-2.8401384279380375,-0.5690846526671681,1.9172959628943276
9816,945715.8667921413,945715.8831127917,right,-0.3805745244026184,0.0162150040268898,0.23797698318958282,-0.22938919067382812,0.5478658080101013,0.8045020699501038,0.36712679266929626,-0.8305103778839111,0.5313988924026489,-0.15401565963741423,0.7508640806194634,-0.5817680549310371,0.2720810485449076,-2.863831689692782,-0.5798109313580124,1.9065720789554443
9817,945715.8867921414,945715.9023215834,right,-0.40375593304634094,-0.018907204270362854,0.24059458076953888,-0.21070367097854614,0.5560051798820496,0.8040286898612976,0.35980987548828125,-0.8044206500053406,0.5273743271827698,-0.16284358749963673,0.7494473504459747,-0.5833891734843341,0.26733421268236146,-2.8852962947823464,-0.5895717976179896,1.8969076395532731
9818,945715.9067921414,945715.9429717917,right,-0.41981324553489685,-0.04441830888390541,0.23229947686195374,-0.19140374660491943,0.5643554329872131,0.8030364513397217,0.37977463006973267,-0.8335590958595276,0.5848536491394043,-0.17192175333018048,0.7477279552333331,-0.585167514222067,0.26253505027990104,-2.907608560319865,-0.5996521759782851,1.8861532838715325
9819,945715.9267921414,945715.9432932084,right,-0.3919287323951721,-0.0479900985956192,0.18586711585521698,-0.17156605422496796,0.572719156742096,0.8015968799591064,0.36718642711639404,-0.7664665579795837,0.5942959189414978,-0.18111083899568772,0.7456300445519505,-0.5872258438613864,0.25768260140760535,-2.9307436960177857,-0.6098190458579632,1.8739593565684347
9820,945715.9467921414,945715.9610977917,right,-0.3325693905353546,-0.05186965689063072,0.13989727199077606,-0.15473876893520355,0.5798276662826538,0.7999097108840942,0.2980835437774658,-0.5399086475372314,0.46048587560653687,-0.1888936339150548,0.7435804087626069,-0.589103492212031,0.2537011183015989,-2.9505077643989743,-0.6185171230836447,1.862815292557372
9821,945715.9667921414,945715.99915575,right,-0.2958086133003235,-0.0505257211625576,0.12481369078159332,-0.14407026767730713,0.5848714709281921,0.7982288599014282,0.211423859000206,-0.2514871060848236,0.28892549872398376,-0.1940025382914998,0.7419251030885589,-0.5904756190157456,0.2514927768976214,-2.9630278203731244,-0.6247215192967306,1.854959925205104
9822,945715.9867921415,945716.0007835834,right,-0.2944236993789673,-0.05251665040850639,0.11396034806966782,-0.1387968212366104,0.5883298516273499,0.7966198921203613,0.1450468748807907,-0.07152661681175232,0.21918687224388123,-0.1967916461256251,0.7405146519699779,-0.591563943426312,0.25092434831727617,-2.9690922809979714,-0.6289917794018114,1.8497452107332553
9823,945716.0067921415,945716.0210882918,right,-0.3246311843395233,-0.05755963549017906,0.11640096455812454,-0.13530650734901428,0.5915250778198242,0.7948523163795471,0.18744157254695892,-0.02033773623406887,0.29724371433258057,-0.19880545210716596,0.7388510511155804,-0.5928955931272142,0.25109801012869315,-2.972980642577129,-0.632948970204797,1.8444532121651418
9824,945716.0267921415,945716.044861875,right,-0.45486173033714294,-0.08981585502624512,0.13100038468837738,-0.12981821596622467,0.5952091813087463,0.7930154800415039,0.20120784640312195,-0.08118421584367752,0.48783624172210693,-0.20136411162551066,0.7364002717459545,-0.5951657539554813,0.2508880571610199,-2.9793300992456384,-0.6375258775172452,1.8357933894725238
9825,945716.0467921415,945716.0623284167,right,-0.546707272529602,-0.1189846470952034,0.13314974308013916,-0.12080684304237366,0.5995299816131592,0.7911825776100159,0.1664775162935257,-0.12043691426515579,0.7008438110351562,-0.204859276241592,0.7327294255977144,-0.5989146572828642,0.2498828920289327,-2.990071688614112,-0.64291360431811,1.8216441773502268
9826,945716.0667921415,945716.0833737084,right,-0.5074347853660583,-0.12275174260139465,0.11295557767152786,-0.11029649525880814,0.6035061478614807,0.7896930575370789,0.08810514211654663,-0.044162239879369736,0.7956502437591553,-0.20828948798599073,0.7280611009609738,-0.6039647944779545,0.24853362796357348,-3.002820515344334,-0.647890938044991,1.803249625988786
9827,945716.0867921415,945716.122537625,right,-0.3815758526325226,-0.10024324804544449,0.09232551604509354,-0.10140031576156616,0.6063922047615051,0.7886738777160645,0.028942445293068886,0.11780654639005661,0.7680450677871704,-0.2105578621061569,0.7230150255093305,-0.6095786245526582,0.24764579718513768,-3.0137237048050904,-0.6515154869705266,1.7838810725167507
9828,945716.1067921416,945716.1235229584,right,-0.2231229990720749,-0.07077339291572571,0.06117052584886551,-0.09584061056375504,0.6081476211547852,0.7880170345306396,-0.009757336229085922,0.2820572257041931,0.6771339774131775,-0.21123577425230264,0.7180072705055722,-0.6152023884398595,0.24773142321657474,-3.020564765313502,-0.6537249465298081,1.7657887770651772
9829,945716.1267921416,945716.1422067917,right,-0.09468573331832886,-0.04066910967230797,0.036013323813676834,-0.09339950978755951,0.6091662049293518,0.7875232696533203,-0.021543776616454124,0.3791150152683258,0.6051446795463562,-0.21062564412398616,0.7132024237495084,-0.6205673611521179,0.24874713204601928,-3.0235452389095205,-0.6550086995191082,1.7496270804964142
9830,945716.1467921416,945716.1738420834,right,-0.014772678725421429,-0.010473466478288174,0.0286911278963089,-0.0925365760922432,0.6099371910095215,0.7870281934738159,-0.004546909127384424,0.3871835172176361,0.5537527799606323,-0.20950070932692869,0.7087045988727849,-0.6255012276434531,0.25019047719611476,-3.0245530219865473,-0.6559812567851704,1.7352248744974241
9831,945716.1667921416,945716.1991023751,right,0.03105279989540577,0.010085083544254303,0.013755861669778824,-0.0915912464261055,0.6106836795806885,0.7865601181983948,-0.013212454505264759,0.33218327164649963,0.520734429359436,-0.20849151181930306,0.7044477078956405,-0.630105860915192,0.2514980886268738,-3.0256696156660396,-0.6569235396021076,1.72163860966586
9832,945716.1867921416,945716.2006939168,right,0.06492123007774353,0.02487834356725216,0.0008695937576703727,-0.09014483541250229,0.6112882494926453,0.7862574458122253,-0.04137028753757477,0.26733362674713135,0.48025187849998474,-0.20773308633024062,0.700560025222982,-0.6343061384986998,0.25242475761841127,-3.0274407565208974,-0.6576872242044106,1.7089713876312036
9833,945716.2067921417,945716.2250229167,right,0.09676545113325119,0.03582995757460594,-0.011007864028215408,-0.08852997422218323,0.611280083656311,0.7864470481872559,-0.07666970044374466,0.22773395478725433,0.4138237535953522,-0.20693276659179918,0.6971693963975036,-0.638105220732759,0.2528937299468613,-3.029495250342354,-0.6576769435414448,1.6974921165966639
9834,945716.2267921417,945716.2423796668,right,0.12264290452003479,0.03856689855456352,-0.02772161364555359,-0.08738843351602554,0.6103503704071045,0.7872964143753052,-0.1216992437839508,0.21134914457798004,0.31833207607269287,-0.20579057746605584,0.6944518793054896,-0.6413927697600298,0.2529861553512955,-3.0310472382979796,-0.6565027253538793,1.6878760771688377
9835,945716.2467921417,945716.2848379167,right,0.137785866856575,0.03182784467935562,-0.04593382403254509,-0.08726247400045395,0.6083800792694092,0.7888338565826416,-0.17287932336330414,0.1896832287311554,0.2178013026714325,-0.20412491628460863,0.6925679500158618,-0.6440236555684073,0.2528162282343313,-3.031418697096358,-0.6540177932956937,1.6808061481782999
9836,945716.2667921417,945716.2860188334,right,0.14354653656482697,0.023729387670755386,-0.05624277517199516,-0.08790311962366104,0.605582594871521,0.790912389755249,-0.2142193466424942,0.1585376113653183,0.1303127259016037,-0.20208449131899092,0.6914119301582761,-0.6460693858459478,0.2523995586694625,-3.03090571957989,-0.650497662852017,1.6759331816213319
9837,945716.2867921417,945716.303273,right,0.14737550914287567,0.022992296144366264,-0.05148959904909134,-0.08896646648645401,0.6023686528205872,0.7932443618774414,-0.22515210509300232,0.1321410834789276,0.060185693204402924,-0.1999353944893609,0.6908480444758978,-0.6475732157659873,0.25180058755725865,-3.0299044257011847,-0.6464651389858356,1.672887005420986
9838,945716.3067921418,945716.32258925,right,0.14605091512203217,0.022024648264050484,-0.042616162449121475,-0.09017233550548553,0.5991690158843994,0.7955281734466553,-0.1965189278125763,0.09162803739309311,0.015235920436680317,-0.197920836072928,0.6907189323864398,-0.6485918126571021,0.2511237161680377,-3.0287255759225467,-0.6424626501550806,1.6712767000942508
9839,945716.3267921418,945716.3460629584,right,0.12787793576717377,0.020666619762778282,-0.033912528306245804,-0.09038789570331573,0.596666157245636,0.7973830699920654,-0.13035276532173157,-0.005900414660573006,0.03314445912837982,-0.19665622315916914,0.690758341609284,-0.6492644680137309,0.25026950614462745,-3.0287190037581473,-0.6393401502272116,1.6701057273023634
9840,945716.3467921418,945716.3621657084,right,0.10721955448389053,0.020367175340652466,-0.03024233877658844,-0.08812454342842102,0.5952827334403992,0.798669159412384,-0.06137006729841232,-0.14081063866615295,0.09107669442892075,-0.19675469117135702,0.6906998817370756,-0.6498216346011922,0.24890351782473005,-3.0316981729142753,-0.6376173884558147,1.6680710131896588
9841,945716.3667921418,945716.3827323751,right,0.1087597981095314,0.025275105610489845,-0.023901818320155144,-0.08367320895195007,0.5949909090995789,0.7993649244308472,-0.01732613891363144,-0.21880310773849487,0.09403389692306519,-0.198100516393486,0.6905388829463044,-0.6502602575674044,0.24713076442670479,-3.037298059043904,-0.6372542613567563,1.6652906174017637
9842,945716.3867921418,945716.4301497084,right,0.11480765044689178,0.03164837881922722,-0.01513226144015789,-0.07912658154964447,0.5950226187705994,0.7998040914535522,-0.009362241253256798,-0.22113670408725739,0.010163976810872555,-0.19975975794659837,0.6906983498989127,-0.6502597465456261,0.24534433185202706,-3.0429813004851174,-0.6372937138812461,1.6636449919456084
9843,945716.4067921418,945716.4307315834,right,0.08654095977544785,0.03721972927451134,0.00798986665904522,-0.07599104940891266,0.595130443572998,0.8000279664993286,0.011752383783459663,-0.2110579013824463,-0.07700973004102707,-0.20117909486964827,0.691427349767487,-0.6495707079135008,0.24395257018566413,-3.046891493064748,-0.6374278334362009,1.6644705598073675
9844,945716.4267921419,945716.4624620418,right,-0.003055126406252384,0.029942965134978294,0.025649549439549446,-0.07287038862705231,0.5954544544219971,0.8000771403312683,0.04080377146601677,-0.2762005925178528,-0.06871642917394638,-0.20279909549711814,0.6924319935234281,-0.6485186270261507,0.24255680209565925,-3.050764265579409,-0.6378310998824449,1.6662771652622603
9845,945716.4467921419,945716.46301575,right,-0.10737573355436325,0.01658334583044052,0.04583072289824486,-0.06793949007987976,0.5963901281356812,0.7998141646385193,0.08196436613798141,-0.36121881008148193,-0.0029179821722209454,-0.20529809501126553,0.693316608190113,-0.6474712865754114,0.24071869904414112,-3.056852198758902,-0.6389962653342375,1.6672049198966814
9846,945716.4667921419,945716.4847167501,right,-0.2076926827430725,-0.006863882299512625,0.05214063078165054,-0.06138076260685921,0.5979644656181335,0.7991686463356018,0.10713902860879898,-0.3932815194129944,0.052839767187833786,-0.20854284507622653,0.6938468223610754,-0.646653540790208,0.23859049383908423,-3.0649375953797877,-0.6409589745269128,1.6666329614268258
9847,945716.4867921419,945716.5036157084,right,-0.27386894822120667,-0.02991313859820366,0.045933797955513,-0.05457818880677223,0.599705159664154,0.7983576655387878,0.09587062895298004,-0.3414023518562317,0.0626489445567131,-0.21185894392859173,0.6941059392841085,-0.646061673762075,0.23650992724815242,-3.0733359912527294,-0.6431325365534559,1.6652104967397383
9848,945716.5067921419,945716.5258362084,right,-0.27870887517929077,-0.03916581720113754,0.0362776443362236,-0.049668122082948685,0.6009755730628967,0.7977226376533508,0.05795766040682793,-0.20058225095272064,0.0025245160795748234,-0.21428524101763696,0.6943520989208705,-0.6455512248804791,0.23499038493229976,-3.0794107466208374,-0.6447210113980265,1.6643817592195018
9849,945716.526792142,945716.5602896668,right,-0.22526457905769348,-0.04078281670808792,0.020621994510293007,-0.04854263365268707,0.6014683246612549,0.7974205017089844,0.01142855267971754,-0.013823949731886387,-0.11292872577905655,-0.2151084079423788,0.6948728443325651,-0.6448735340131841,0.23455938022787237,-3.080793321642154,-0.6453376940430788,1.6657355724447789
9850,945716.546792142,945716.5620527917,right,-0.15075676143169403,-0.03546816110610962,0.0073391771875321865,-0.05181417986750603,0.6010099649429321,0.7975603342056274,-0.03677178546786308,0.1531979739665985,-0.24103102087974548,-0.21411341431263464,0.6958966641629495,-0.6438228680492498,0.23531957820916424,-3.0767181902497573,-0.6447640485689333,1.670172559844405
9851,945716.566792142,945716.5847860418,right,-0.07861360162496567,-0.023612793534994125,0.00576247600838542,-0.05875466391444206,0.599880576133728,0.797929048538208,-0.05614452809095383,0.25811803340911865,-0.32870715856552124,-0.21168761227639935,0.6973740998406598,-0.6423657757190048,0.23711536528165125,-3.0680915751906483,-0.6433517511899035,1.6773719226140305
9852,945716.586792142,945716.6037227918,right,-0.03238785266876221,-0.012689338065683842,0.009971830062568188,-0.0673900917172432,0.5984854102134705,0.7982944250106812,-0.05509370192885399,0.2575986683368683,-0.3479391634464264,-0.20866458819808584,0.6991166475904709,-0.6406114485370501,0.2393990678946329,-3.057374958156238,-0.6416091275971785,1.6860785046755171
9853,945716.606792142,945716.6462861667,right,-0.020160533487796783,-0.0010792649118229747,0.031351663172245026,-0.07534126192331314,0.5972263216972351,0.7985262274742126,-0.03913858160376549,0.1836727410554886,-0.3361433744430542,-0.20598651922201808,0.7009005676837826,-0.6387498703023198,0.2414670606471497,-3.0475209515532256,-0.6400384030644964,1.6947128749605855
9854,945716.626792142,945716.64694875,right,-0.0714312195777893,0.012975920923054218,0.055295370519161224,-0.08118902891874313,0.5964058041572571,0.7985666394233704,-0.013762653805315495,0.04918231442570686,-0.2844879925251007,-0.20425900806217193,0.7026693497919456,-0.6368194509764943,0.24288881700163448,-3.040272565832453,-0.6390158066559686,1.7025847488144108
9855,945716.6467921421,945716.6636749584,right,-0.190573051571846,0.00801821518689394,0.07965035736560822,-0.083755262196064,0.5963325500488281,0.7983558773994446,0.03046872653067112,-0.1127111092209816,-0.1986074298620224,-0.20396303463050677,0.7042708900892605,-0.6349648473835675,0.24335365101049497,-3.037065541587793,-0.6389245516784402,1.7088095449890481
9856,945716.6667921421,945716.7060510834,right,-0.3286784887313843,-0.01619529537856579,0.13200148940086365,-0.08309801667928696,0.5966896414756775,0.7981577515602112,0.06276485323905945,-0.1952887922525406,-0.16410063207149506,-0.20491457657833176,0.7057153010623672,-0.6332808878685838,0.24275709728845993,-3.037854333317024,-0.6393694540166369,1.7132517259980944
9857,945716.6867921421,945716.7235662501,right,-0.4381348192691803,-0.0448857918381691,0.19999071955680847,-0.08303982019424438,0.5971671938896179,0.7978067994117737,0.04458615928888321,-0.07800179719924927,-0.2815367579460144,-0.2057857238345966,0.7073224569922947,-0.6313463665033865,0.2423815071327943,-3.037881190858079,-0.6399646604234632,1.71857870763015
9858,945716.7067921421,945716.7398329584,right,-0.5169603228569031,-0.04944927617907524,0.26337289810180664,-0.08893740177154541,0.5968584418296814,0.7974022030830383,-0.01177804172039032,0.2373799979686737,-0.5312701463699341,-0.20454098758357517,0.7096283721851899,-0.6285925429445439,0.24384811813033808,-3.0305180050786746,-0.6395798566484784,1.7285751016222757
9859,945716.7267921421,945716.7431719584,right,-0.6122608780860901,-0.049877144396305084,0.35158678889274597,-0.10383116453886032,0.5947649478912354,0.7971663475036621,-0.09610700607299805,0.6182007789611816,-0.8085082173347473,-0.19982826074632082,0.7128842289099101,-0.6248032792502268,0.24796289467295046,-3.012071712041187,-0.6369731559374057,1.7450555721952354
9860,945716.7467921422,945716.771576875,right,-0.7220042943954468,-0.06508582085371017,0.4409814178943634,-0.12699848413467407,0.5909286141395569,0.7966646552085876,-0.14198076725006104,0.9109362363815308,-0.969883143901825,-0.19189944026625702,0.716737038020221,-0.6201775879422464,0.2546413376322712,-2.983510253016392,-0.632209399290048,1.7667975723135327
9861,945716.7667921422,945716.7999165417,right,-0.7995036244392395,-0.07746722549200058,0.4630192518234253,-0.15467573702335358,0.5858587026596069,0.7955157160758972,-0.15602773427963257,1.0864592790603638,-0.983955442905426,-0.18206547085493202,0.7204576647474092,-0.6153848491363973,0.26285805783876565,-2.9495543659167995,-0.6259391865836085,1.7901022779070974
9862,945716.7867921422,945716.8049052918,right,-0.8262519240379333,-0.08289116621017456,0.4706960916519165,-0.18481621146202087,0.5796005129814148,0.793666422367096,-0.24333864450454712,1.2577118873596191,-0.9950175881385803,-0.17091395180719024,0.7236920040471265,-0.610821589923805,0.27194709269619904,-2.912806214639132,-0.6182382775703685,1.8129024211690794
9863,945716.8067921422,945716.8247589167,right,-0.793449342250824,-0.0592932291328907,0.5059025287628174,-0.21875984966754913,0.5706237554550171,0.791537880897522,-0.3849968910217285,1.5164575576782227,-1.0904732942581177,-0.15740021180815778,0.726656658602326,-0.6064148419419163,0.2818795428396049,-2.8719504358318697,-0.6072651434563856,1.8356563990785295
9864,945716.8267921422,945716.8436092084,right,-0.7419829368591309,-0.017616208642721176,0.53412264585495,-0.2583377957344055,0.5576117038726807,0.7888796925544739,-0.5660706758499146,1.8383119106292725,-1.2406529188156128,-0.1405024036297902,0.7295626400017642,-0.6018123536381159,0.2929493137103701,-2.8251246712661287,-0.5915058226961374,1.8592785154043086
9865,945716.8467921423,945716.8649997917,right,-0.6788646578788757,0.02443159744143486,0.5430009365081787,-0.3049827814102173,0.538585901260376,0.7854362726211548,-0.876099705696106,2.2069263458251953,-1.487838864326477,-0.11906135156338063,0.7325807722615297,-0.5966937873817483,0.3051328336950536,-2.7712155304774098,-0.5687578271366754,1.883948374418434
9866,945716.8667921423,945716.8898207084,right,-0.5924543142318726,0.10232643783092499,0.5876485109329224,-0.359610915184021,0.5117241144180298,0.7802681922912598,-1.1923613548278809,2.5542590618133545,-1.7599198818206787,-0.09223371308918346,0.7358386647442651,-0.5904874975285176,0.31836898042315237,-2.709727036814241,-0.5371903096693714,1.9097092862102194
9867,945716.8867921423,945716.9049057501,right,-0.5271754264831543,0.1877841055393219,0.6399746537208557,-0.4192493259906769,0.4772976338863373,0.7722803354263306,-1.415952444076538,2.744359016418457,-1.8812693357467651,-0.06100741555596759,0.7388694227092981,-0.5832770189898611,0.3318702573426449,-2.644238639808972,-0.4975768472960297,1.933927738890891
9868,945716.9067921423,945716.9322462918,right,-0.4647376537322998,0.26282715797424316,0.6784414052963257,-0.47903066873550415,0.43772485852241516,0.7608720064163208,-1.5467182397842407,2.7953011989593506,-1.8576834201812744,-0.02758756454817901,0.7409719875491837,-0.5756704426428079,0.344677768893906,-2.5797059475431197,-0.4530666411441422,1.9534165882103796
9869,945716.9267921423,945716.9497619168,right,-0.3678129315376282,0.342021644115448,0.7074033617973328,-0.5364903807640076,0.3952682912349701,0.745614230632782,-1.5978107452392578,2.8034753799438477,-1.7925578355789185,0.006605048773492813,0.7417514464646523,-0.5679893047478555,0.35657966982042305,-2.517880584447655,-0.40635988425054753,1.967232262781331
9870,945716.9467921423,945716.9633902084,right,-0.26856017112731934,0.4042432904243469,0.7371072769165039,-0.5907701253890991,0.35204949975013733,0.7259831428527832,-1.5622960329055786,2.783146619796753,-1.7252635955810547,0.040528856936221234,0.7411535849534383,-0.560073980839372,0.3679207734977584,-2.4585225822143193,-0.3597598732603233,1.9764410593925537
9871,945716.9667921424,945717.0012457917,right,-0.15834742784500122,0.4526885747909546,0.7266436219215393,-0.6417264938354492,0.30929750204086304,0.7017989158630371,-1.490585207939148,2.780027151107788,-1.6858859062194824,0.07362502070797144,0.7393510504324753,-0.5515971608139848,0.3790510566681958,-2.400877335055175,-0.31445422111893195,1.9826038975535738
9872,945716.9867921424,945717.0264993334,right,-0.03046533279120922,0.4996079206466675,0.6754869818687439,-0.6900034546852112,0.2666529715061188,0.6728976964950562,-1.4366523027420044,2.830343008041382,-1.706687331199646,0.10623821433085817,0.7365223326797288,-0.5422026040806338,0.39021079913951495,-2.3436442813452056,-0.2699186032538093,1.9867805180000793
9873,945717.0067921424,945717.0268795834,right,0.09844449907541275,0.5360647439956665,0.6236982345581055,-0.7363752126693726,0.2235032171010971,0.6385907530784607,-1.3915935754776,2.9301016330718994,-1.7684781551361084,0.13890672111510183,0.7326832259484303,-0.5314796504071079,0.40175807984381395,-2.285196361046501,-0.2254071577285081,1.9896989870303292
9874,945717.0267921424,945717.0734692084,right,0.2070167511701584,0.5657881498336792,0.5726764798164368,-0.7805149555206299,0.1793593019247055,0.5988545417785645,-1.3366923332214355,3.012991189956665,-1.815920114517212,0.17183457406521768,0.7278719517128867,-0.5192587497804722,0.41357652589981303,-2.225249996400175,-0.1803351778342471,1.9913956021611066
9875,945717.0467921424,945717.0735156251,right,0.2915816605091095,0.5761897563934326,0.518374502658844,-0.8208360075950623,0.1354389786720276,0.5548735857009888,-1.248276948928833,2.9661784172058105,-1.7661327123641968,0.20421974241541285,0.7220878392059809,-0.505990054630355,0.42527337090490985,-2.165223116993767,-0.1358565391402203,1.9913860056121266
9876,945717.0667921425,945717.0995888334,right,0.35887354612350464,0.5674180388450623,0.4604751169681549,-0.8553404808044434,0.0940980538725853,0.5094491839408875,-1.1347846984863281,2.775320529937744,-1.6114258766174316,0.2345703215027834,0.7155403591423434,-0.49267288173286783,0.43617902004576375,-2.1079815788549836,-0.09423750602990015,1.989200837683131
9877,945717.0867921425,945717.1173057084,right,0.42288488149642944,0.5508112907409668,0.40354570746421814,-0.883474588394165,0.05740352347493172,0.4649490416049957,-0.9931021332740784,2.528378486633301,-1.4153552055358887,0.2617202164061911,0.7085621583912435,-0.4800147632839382,0.4461254909445539,-2.055240994677829,-0.05743513357500025,1.9854149240695955
9878,945717.1067921425,945717.1248805834,right,0.49347591400146484,0.5293066501617432,0.3458494246006012,-0.9060779809951782,0.025510359555482864,0.42234092950820923,-0.8400225639343262,2.319216728210449,-1.256286859512329,0.2856071701101376,0.7014717246197001,-0.46808959904002223,0.4552559032217301,-2.0069744259646667,-0.025513165792662745,1.980972505312124
9879,945717.1267921425,945717.1447494167,right,0.5441954135894775,0.5008049011230469,0.2962254285812378,-0.9243453741073608,-0.0023926137946546078,0.38154906034469604,-0.7009158134460449,2.15164852142334,-1.130507230758667,0.30671558011470473,0.6944538834927518,-0.45662711797454825,0.4638435416618311,-1.9622691612010408,0.0023925745191595055,1.9766849010704584
9880,945717.1467921425,945717.1876049167,right,0.5894343852996826,0.47133997082710266,0.2367771416902542,-0.9390720129013062,-0.027000730857253075,0.34265807271003723,-0.5891222953796387,1.9968080520629883,-1.0110527276992798,0.32549564311978046,0.68757282453107,-0.44561490903341383,0.47193577112777063,-1.9206742485528336,0.027003967810237537,1.9726252165307379
