index,source_timestamp,receipt_uptime,sensor_location,user_acceleration_x,user_acceleration_y,user_acceleration_z,gravity_x,gravity_y,gravity_z,rotation_rate_x,rotation_rate_y,rotation_rate_z,quaternion_w,quaternion_x,quaternion_y,quaternion_z,roll,pitch,yaw
9340,955453.3167467506,955453.3543092083,Right headphone,-0.0020989575423300266,0.020677633583545685,0.0053332229144871235,0.07299794256687164,0.4849187135696411,0.871507465839386,0.0195571631193161,-0.02639196813106537,-0.029054027050733566,0.10714201662922733,-0.5348442809833629,-0.8060368340596782,0.22971044539233576,3.0580273267859304,-0.5062702613454036,-1.1933099560317613
9341,955453.3367467506,955453.3726724167,Right headphone,-0.020374372601509094,0.028928279876708984,0.0063931080512702465,0.07329478859901428,0.48587554693222046,0.8709493279457092,0.04917590320110321,-0.05643971636891365,-0.03901839628815651,0.10715875281438464,-0.5342574219623999,-0.8062528904873726,0.23030917051007976,3.0576355805690034,-0.5073646726562525,-1.192202266517112
9342,955453.3567467507,955453.3796859167,Right headphone,-0.03396075963973999,0.03274645283818245,0.00033654022263363004,0.07439225167036057,0.48697730898857117,0.8702406287193298,0.08829840272665024,-0.09435408562421799,-0.03910322114825249,0.10691893563277578,-0.5338012967686397,-0.8063352612233603,0.23118821228837702,3.056315447530964,-0.5086256709199296,-1.1917220342598602
9343,955453.3767467507,955453.402776625,Right headphone,-0.04135756939649582,0.030846508219838142,-0.012083236128091812,0.07589999586343765,0.4889947474002838,0.8689782023429871,0.13164609670639038,-0.120869480073452,-0.051282335072755814,0.10672701023675885,-0.5330881241968496,-0.8064156571694844,0.23263745325464563,3.0544699624151037,-0.5109369757063625,-1.1909879876695788
9344,955453.3967467507,955453.4374284584,Right headphone,-0.04241913557052612,0.0250812117010355,-0.025804856792092323,0.07735959440469742,0.49215424060821533,0.8670640587806702,0.17602071166038513,-0.12786009907722473,-0.07924369722604752,0.10679008262757517,-0.5319105795241386,-0.8065997903657032,0.23465709406095386,3.0526082661684635,-0.5145627600612145,-1.1894042113138852
9345,955453.4167467507,955453.4408397084,Right headphone,-0.04145136475563049,0.0190388485789299,-0.03970635309815407,0.07866600155830383,0.49563178420066833,0.8649629354476929,0.2166425585746765,-0.12696519494056702,-0.11691184341907501,0.10700330581361144,-0.5306794879648976,-0.8067594474608708,0.2367886172436931,3.0508950832493924,-0.51856214570124,-1.1877392252865915
9346,955453.4367467507,955453.462732,Right headphone,-0.03418588638305664,0.013875243254005909,-0.045843299478292465,0.07936039566993713,0.5000244975090027,0.8623674511909485,0.2490466982126236,-0.11687767505645752,-0.1672160029411316,0.1076226787548471,-0.5289426897100901,-0.8070956587268214,0.23923561265856885,3.049825092346178,-0.5236270742233178,-1.184882348089013
9347,955453.4567467507,955453.5050166667,Right headphone,-0.03018573671579361,0.007801575120538473,-0.05594855174422264,0.07915179431438446,0.5056210160255432,0.8591170310974121,0.27537545561790466,-0.11898574233055115,-0.2115200310945511,0.1087801565821325,-0.5264196804395205,-0.8077381310164398,0.24209146589891783,3.049720611628905,-0.5301016546375268,-1.1801215459856012
9348,955453.4767467508,955453.5057693333,Right headphone,-0.02194836735725403,0.0005886993603780866,-0.0669950321316719,0.0784389078617096,0.5116075277328491,0.8556311130523682,0.2855023741722107,-0.12683485448360443,-0.2610558271408081,0.11013777501605133,-0.5234479188366961,-0.8085900624872817,0.24505914247905172,3.050174598495235,-0.5370546964838645,-1.1742044778338339
9349,955453.4967467508,955453.534896,Right headphone,-0.01199730858206749,-0.0001373050909023732,-0.06975208967924118,0.07748071104288101,0.5174378156661987,0.852205753326416,0.2775709331035614,-0.14539317786693573,-0.30678513646125793,0.11144387261505351,-0.5201579742297737,-0.8096533912209768,0.24794621126012115,3.050924248758287,-0.54385405281325,-1.167389352012773
9350,955453.5167467508,955453.5460022917,Right headphone,-0.0056197429075837135,0.0022793493699282408,-0.06570447236299515,0.07570388913154602,0.5255023241043091,0.847417414188385,0.25843244791030884,-0.180486798286438,-0.33095911145210266,0.11327405275860702,-0.5151082470045543,-0.8114014059338321,0.2519132711270716,3.052494510427223,-0.5533054696100245,-1.156598223289172
9351,955453.5367467508,955453.5698857501,Right headphone,0.0022950959391891956,0.004691030830144882,-0.058397457003593445,0.07608450204133987,0.5288365483283997,0.8453064560890198,0.23264960944652557,-0.21495255827903748,-0.34787407517433167,0.11334870616843859,-0.5124054230247448,-0.8124616614738909,0.2539662110194334,3.0518265196896284,-0.5572292183515244,-1.1510444055683138
9352,955453.5567467508,955453.5885628334,Right headphone,0.013387054204940796,0.010891929268836975,-0.04650796949863434,0.07749462872743607,0.5295606851577759,0.8447248935699463,0.1965055763721466,-0.232761412858963,-0.3775551915168762,0.11243838266101945,-0.5107032085314906,-0.8133539953851573,0.2549415293649467,3.050109400220045,-0.5580826153689994,-1.1475892034265216
9353,955453.5767467509,955453.6010767501,Right headphone,0.02510686032474041,0.017864005640149117,-0.027188783511519432,0.07921719551086426,0.5287394523620605,0.8450793027877808,0.15997149050235748,-0.2409878671169281,-0.40844354033470154,0.11100970645869343,-0.5093769854247172,-0.8142940507467612,0.2552197700577308,3.048126581265956,-0.5571147647372926,-1.144729754375785
9354,955453.5967467509,955453.6222745834,Right headphone,0.03063359670341015,0.023050956428050995,-0.008905668742954731,0.07958147674798965,0.5303999185562134,0.8440039753913879,0.13036642968654633,-0.2556539475917816,-0.4261121451854706,0.11034417117765655,-0.5060629388462883,-0.8160284044821868,0.25655830663692686,3.047580371731435,-0.559072242735459,-1.1372180566059984
9355,955453.6167467509,955453.643606625,Right headphone,0.033980078995227814,0.02727898582816124,0.00409816624596715,0.0796021819114685,0.5328875184059143,0.8424336314201355,0.10702258348464966,-0.2754642069339752,-0.4305560290813446,0.10981123193282963,-0.5018782226146989,-0.8181290332090526,0.25831123188294935,3.0473817977028146,-0.5620093643252894,-1.1277074847662498
9356,955453.6367467509,955453.6611077917,Right headphone,0.03756552189588547,0.027760576456785202,0.009496703743934631,0.07918407022953033,0.5364680886268616,0.8401975631713867,0.09046190232038498,-0.29279786348342896,-0.4344022870063782,0.10949881145327481,-0.4967243909058771,-0.820587416116568,0.260597864346584,3.0476257866468206,-0.5662464261456728,-1.1160127232584285
9357,955453.6567467509,955453.6811058751,Right headphone,0.04117657244205475,0.0274994894862175,0.015798406675457954,0.07924683392047882,0.5392654538154602,0.8383991122245789,0.08176594227552414,-0.31186240911483765,-0.4356573224067688,0.10879789321990602,-0.4918398616727771,-0.8229782203694446,0.2626091514407632,3.047351203200374,-0.5695646852629024,-1.1049631435531406
9358,955453.676746751,955453.7023981251,Right headphone,0.043173857033252716,0.024112233892083168,0.02007620967924595,0.0796411857008934,0.5418382883071899,0.8367007374763489,0.08580981940031052,-0.3302733302116394,-0.4427911639213562,0.10787579533973764,-0.48698476926909423,-0.825346150137104,0.264598416803466,3.0466939430639974,-0.5726227760776228,-1.094080410730369
9359,955453.696746751,955453.722225875,Right headphone,0.048661671578884125,0.021363122388720512,0.02473415620625019,0.07994922995567322,0.5445790886878967,0.8348899483680725,0.08499730378389359,-0.32612425088882446,-0.47425365447998047,0.10695231618412396,-0.4818885460664766,-0.8277852796216375,0.2666759869222208,3.0461237269532706,-0.5758871965785123,-1.0826651736000545
9360,955453.716746751,955453.765057125,Right headphone,0.051312536001205444,0.024784579873085022,0.03921690955758095,0.07986606657505035,0.5466957688331604,0.8335135579109192,0.0764937773346901,-0.3097631633281708,-0.515433669090271,0.10601896921902398,-0.47686132774944406,-0.8302771200272929,0.26833397124225117,3.0460658961930123,-0.5784130305112861,-1.0711197566111579
9361,955453.736746751,955453.7655266251,Right headphone,0.04911055043339729,0.026027021929621696,0.049734797328710556,0.07904774695634842,0.548882246017456,0.8321536183357239,0.06997566670179367,-0.30617401003837585,-0.5457320213317871,0.10529753840989715,-0.47143947062790903,-0.8329596047597361,0.2698806809652897,3.0468852299462315,-0.5810264586156324,-1.0583941557717864
9362,955453.756746751,955453.7822337084,Right headphone,0.046503614634275436,0.02429386042058468,0.05066666752099991,0.0780051127076149,0.5508921146392822,0.8309230208396912,0.06674343347549438,-0.3088294267654419,-0.5632599592208862,0.10457028276111675,-0.46588059158410117,-0.8357133671036305,0.2712997188322586,3.0479894894717434,-0.5834328266931623,-1.0452383580272342
9363,955453.776746751,955453.8023218334,Right headphone,0.046965159475803375,0.020349828526377678,0.04606710001826286,0.07657218724489212,0.5530132055282593,0.8296464085578918,0.061872925609350204,-0.29503682255744934,-0.5862884521484375,0.1039556913165403,-0.4600473759109455,-0.8385580913216765,0.2727086815694144,3.049558594390729,-0.5859764882767514,-1.0313436706179697
9364,955453.7967467511,955453.8396599167,Right headphone,0.04862353950738907,0.016307754442095757,0.04191692918539047,0.07460274547338486,0.5550661683082581,0.8284540176391602,0.06173229590058327,-0.2654297351837158,-0.6076175570487976,0.10352833936329804,-0.45412492231472623,-0.8414259461950122,0.2739614874742349,3.051784496209339,-0.5884425568197529,-1.0170454347767959
9365,955453.8167467511,955453.842087875,Right headphone,0.04555823281407356,0.011533028446137905,0.045528341084718704,0.07197175174951553,0.5571407079696655,0.8272936940193176,0.0689983144402504,-0.23587410151958466,-0.6137070059776306,0.10339425437739985,-0.4481722660320839,-0.8442680396781187,0.27506895577919227,3.054814684838526,-0.5909386385962551,-1.0024588100762883
9366,955453.8367467511,955453.8636262501,Right headphone,0.03219218552112579,0.005206807050853968,0.05003759637475014,0.06882184743881226,0.5595232844352722,0.8259523510932922,0.08572810888290405,-0.22418710589408875,-0.5946884751319885,0.10356995016781458,-0.442175935536895,-0.8470281434806693,0.2762192886026933,3.058460623259968,-0.5938105314887977,-0.9876826529320465
9367,955453.8567467511,955453.8834432918,Right headphone,0.015152490697801113,-0.003960020374506712,0.05312091484665871,0.06603837758302689,0.5619637966156006,0.824521541595459,0.10262005031108856,-0.23382513225078583,-0.5527999401092529,0.10369138093327544,-0.4364874166902889,-0.8495525695350895,0.2774659705953906,3.061670455948203,-0.5967580603062534,-0.9738223909377243
9368,955453.8767467511,955453.9359475,Right headphone,0.0005862903199158609,-0.01747935451567173,0.04460231214761734,0.06489516794681549,0.5645537972450256,0.8228413462638855,0.10904273390769958,-0.2557183802127838,-0.501281201839447,0.10330556255045358,-0.43144899086483146,-0.8516293127538113,0.2791188974153095,3.062888554992956,-0.5998926022987506,-0.9622055805772691
9369,955453.8967467512,955453.9360645834,Right headphone,-0.013945798389613628,-0.030983388423919678,0.036083679646253586,0.06371777504682541,0.5671284794807434,0.8211610913276672,0.11546541750431061,-0.2776116132736206,-0.44976240396499634,0.1029163263175465,-0.4263964999902973,-0.8536782974130427,0.28076276180192794,3.0641532564895027,-0.6030152251850864,-0.9505591923025972
9370,955453.9167467512,955453.9419646667,Right headphone,-0.019433168694376945,-0.048384927213191986,0.021265259012579918,0.06326889246702194,0.5694736838340759,0.8195711374282837,0.1122153177857399,-0.2739666700363159,-0.4272800385951996,0.10226254312722052,-0.42179341815516946,-0.8554974891648672,0.2824124963005987,3.0645480654834762,-0.6058654507416373,-0.9402175642776794
9371,955453.9367467512,955453.9420817917,Right headphone,-0.02489154413342476,-0.06577896326780319,0.0064493874087929726,0.06279108673334122,0.5718113780021667,0.8179787993431091,0.10896522551774979,-0.27032169699668884,-0.4047977030277252,0.10160583798321676,-0.4171787082942731,-0.8572930547035313,0.28405442762471145,3.0649793590942047,-0.6087120997616263,-0.9298542299480232
9372,955453.9567467512,955453.9660565418,Right headphone,-0.015296246856451035,-0.08069120347499847,-0.008926574140787125,0.06175656244158745,0.5739305019378662,0.8165723085403442,0.08098097145557404,-0.21878840029239655,-0.45586255192756653,0.10115900253800049,-0.4126226922056606,-0.8590859820046981,0.28544842848937513,3.066107499283824,-0.6112975195930094,-0.9193631894237922
9373,955453.9767467512,955454.0108810418,Right headphone,-0.0007996613858267665,-0.0774039477109909,-0.00862943660467863,0.05914771556854248,0.5757217407226562,0.8155033588409424,0.0422477051615715,-0.16926030814647675,-0.5012144446372986,0.101221574687705,-0.4076663677452969,-0.8611387075865762,0.28636066143866323,3.069190508631074,-0.6134866074296349,-0.9072320859656442
9374,955453.9967467512,955454.0118795834,Right headphone,0.012579777278006077,-0.07152239233255386,-0.00404361030086875,0.05562617629766464,0.5763459205627441,0.8153102397918701,-0.011604925617575645,-0.12619632482528687,-0.5508109927177429,0.10144185879127884,-0.4028368051675101,-0.8633525797576016,0.28645127079415633,3.0734713811995276,-0.6142501662412734,-0.8947509997484109
9375,955454.0167467513,955454.0359004167,Right headphone,0.027304137125611305,-0.05657471716403961,0.00818563811480999,0.050753917545080185,0.5763415098190308,0.8156312108039856,-0.07003128528594971,-0.09902899712324142,-0.5851971507072449,0.10198616939146363,-0.39753670987752465,-0.8658985085401114,0.2859775333509178,3.0794463954108116,-0.6142448014261395,-0.8805123485164204
9376,955454.0367467513,955454.0420224167,Right headphone,0.02578546106815338,-0.0390729196369648,0.013958021067082882,0.04590814560651779,0.5753219723701477,0.8166374564170837,-0.12072160094976425,-0.13099604845046997,-0.5448833107948303,0.10230004532381105,-0.39232983684369677,-0.8685597785683682,0.2849839707599308,3.0854358555526558,-0.6129977096906937,-0.8663123253228473
9377,955454.0567467513,955454.0660302917,Right headphone,0.028193306177854538,-0.020845815539360046,0.015534486621618271,0.04243028536438942,0.5735393762588501,0.8180785775184631,-0.1688927263021469,-0.18589900434017181,-0.47258326411247253,0.10188414433257081,-0.38741466418727666,-0.8711769197533124,0.28386688729946913,3.08977346455145,-0.6108200064924625,-0.853220465595566
9378,955454.0767467513,955454.0983965833,Right headphone,0.03544096276164055,-0.010954571887850761,0.01671813242137432,0.04086916148662567,0.5707305073738098,0.8201200366020203,-0.20508089661598206,-0.23013518750667572,-0.40344831347465515,0.10053870302285454,-0.38318765656228376,-0.873628812453315,0.28254570338683926,3.0918008570154054,-0.6073952179342698,-0.8423011334527655
9379,955454.0967467513,955454.1411480417,Right headphone,0.03502388298511505,-0.012426173314452171,0.004491156432777643,0.04130813851952553,0.5675115585327148,0.8223288655281067,-0.1982332319021225,-0.23691460490226746,-0.35382258892059326,0.09841505990722185,-0.3797636365280428,-0.8757534257835261,0.28133639497591506,3.0914018873821636,-0.6034803995265359,-0.8339603562799387
9380,955454.1167467514,955454.1412732501,Right headphone,0.03457408770918846,-0.013891438022255898,-0.0077196164056658745,0.04177994653582573,0.5642862319946289,0.8245213031768799,-0.19138556718826294,-0.2436939775943756,-0.3041968047618866,0.09628923830735477,-0.3763312655301385,-0.877858475407447,0.28012084983138424,3.090964356516211,-0.5995684244429691,-0.8256402312645904
9381,955454.1367467514,955454.1416530834,Right headphone,0.03837104141712189,-0.012658967636525631,-0.012798689305782318,0.041739851236343384,0.5615375638008118,0.8263976573944092,-0.1723850816488266,-0.16870640218257904,-0.3052540123462677,0.09462798729558435,-0.37316911952817716,-0.8797406993797505,0.2790101046805094,3.0911275041563817,-0.5962428366597251,-0.8178630104466509
9382,955454.1567467514,955454.1871665834,Right headphone,0.031219376251101494,-0.008736303076148033,-0.012719511985778809,0.04033231362700462,0.5592189431190491,0.8280381560325623,-0.14490468800067902,-0.09271136671304703,-0.31038206815719604,0.09378155890520692,-0.3701385953123809,-0.8814854209156641,0.2778234223797228,3.0929229959981264,-0.5934433539012124,-0.8099747701334754
9383,955454.1767467514,955454.188220625,Right headphone,0.012546217069029808,-0.001462337328121066,-0.0068879458121955395,0.038502149283885956,0.5571170449256897,0.8295409679412842,-0.10752690583467484,-0.06107405945658684,-0.26386675238609314,0.09335765941939297,-0.36760293280417033,-0.8829714702031765,0.27661140239727966,3.0952122924364107,-0.5909101248008172,-0.8031184288731993
9384,955454.1967467514,955454.2035485418,Right headphone,-0.002682834630832076,0.007925261743366718,-0.003546812105923891,0.03718264400959015,0.5557250380516052,0.8305343985557556,-0.07327854633331299,-0.06292840093374252,-0.1811942756175995,0.09303086369018594,-0.36559227910278685,-0.8840868462423895,0.2758226269987777,3.096853143475352,-0.5892348234965084,-0.7978012401882217
9385,955454.2167467515,955454.2471438334,Right headphone,-0.016920285299420357,0.016997123137116432,-0.007757968734949827,0.03695197403430939,0.5547943711280823,0.8311663269996643,-0.05064202845096588,-0.06440845876932144,-0.07939109206199646,0.09253872276197307,-0.36436521432319957,-0.8847718400508251,0.2754148218616271,3.0971640875678372,-0.5881157551958449,-0.7947623004027102
9386,955454.2367467515,955454.2481797917,Right headphone,-0.020661767572164536,0.024694334715604782,-0.011831216514110565,0.037547897547483444,0.5541922450065613,0.8315412402153015,-0.04030255228281021,-0.05317780748009682,0.013753607869148254,0.09195616881000072,-0.3638707820788344,-0.8850812061529699,0.27526959817232827,3.0964688778737517,-0.5873922187318285,-0.7937534314329037
9387,955454.2567467515,955454.2659328751,Right headphone,-0.02929353527724743,0.029842637479305267,-0.01163328904658556,0.038710128515958786,0.5535404682159424,0.8319223523139954,-0.03445079177618027,-0.03436727076768875,0.08553528785705566,0.09133677695877045,-0.36416994611242237,-0.885065807615871,0.2751299535612586,3.095095408014054,-0.586609405457171,-0.7947397462845259
9388,955454.2767467515,955454.307179125,Right headphone,-0.03072742000222206,0.03183768317103386,-0.008250879123806953,0.040365688502788544,0.5527710914611816,0.8323550224304199,-0.029844803735613823,0.0023841187357902527,0.1383654624223709,0.09069875620817548,-0.36526027833104807,-0.8847386608579796,0.27494771522696043,3.0931350130064987,-0.5856858485366783,-0.7976746236545607
9389,955454.2967467515,955454.308223,Right headphone,-0.029766729101538658,0.028177445754408836,-0.00935699138790369,0.04179680347442627,0.5522438883781433,0.8326343297958374,-0.0193000640720129,0.04619097709655762,0.1797676831483841,0.090369589057024,-0.36681258619779045,-0.8841751784146409,0.2748021486937103,3.0914366396770028,-0.5850533775489797,-0.8016168179757823
9390,955454.3167467515,955454.3509382501,Right headphone,-0.024559030309319496,0.026261446997523308,-0.0055249840952456,0.042849570512771606,0.551969587802887,0.8327623605728149,-0.0006678993231616914,0.08477719873189926,0.2091204673051834,0.09039358726245385,-0.36872298912963014,-0.8834164349094054,0.27467748493494254,3.090183409462071,-0.5847244072653639,-0.8062792272860108
9391,955454.3367467516,955454.3520372501,Right headphone,-0.022126516327261925,0.022073762491345406,-0.0008297579479403794,0.043379928916692734,0.5521698594093323,0.832602322101593,0.024343108758330345,0.11413387954235077,0.23207876086235046,0.09082940959632099,-0.37078660332958807,-0.8825069540225928,0.27467952598511725,3.0895382587514724,-0.584964565907373,-0.811191288464503
9392,955454.3567467516,955454.3658213334,Right headphone,-0.017458787187933922,0.015840010717511177,-0.0028894429560750723,0.04390133544802666,0.5525961518287659,0.832291841506958,0.05766856670379639,0.13608257472515106,0.2420194298028946,0.09145278574640754,-0.3732593282351059,-0.8813758941657256,0.274755052209015,3.088894124506902,-0.5854760044032049,-0.817078900664137
9393,955454.3767467516,955454.3935111667,Right headphone,-0.011286367662250996,0.007900908589363098,-0.006155083421617746,0.04396655037999153,0.553585410118103,0.8316306471824646,0.08262225240468979,0.1681824028491974,0.2311347872018814,0.09242656247004308,-0.3757111276660298,-0.8801457492762336,0.2750306073005749,3.0887741017406554,-0.586663401755924,-0.8228701888975218
9394,955454.3967467516,955454.4096474167,Right headphone,-0.006692534312605858,0.0033415432553738356,-0.006819203961640596,0.04344135522842407,0.5550311207771301,0.8306941390037537,0.10121173411607742,0.18007920682430267,0.22341647744178772,0.09376302515520775,-0.378052485366761,-0.8788762348171094,0.27542924468962804,3.089345154727629,-0.5884003825326622,-0.8282905159441418
9395,955454.4167467516,955454.4397841251,Right headphone,-0.007619102019816637,-0.001439122250303626,-0.011631479486823082,0.04319215565919876,0.5566138029098511,0.8296476602554321,0.11779582500457764,0.1698317974805832,0.23402628302574158,0.09505090094291013,-0.38053484152377337,-0.8775062053861998,0.27593733497883016,3.0895789308565105,-0.5903042447969361,-0.8341740939319239
9396,955454.4367467517,955454.4429187501,Right headphone,-0.0007634743233211339,-0.003511332208290696,-0.014256509952247143,0.04301097244024277,0.5583491325378418,0.8284904360771179,0.11561547964811325,0.1666090041399002,0.22125767171382904,0.09633522420164344,-0.3829692588268137,-0.8761163298325557,0.2765399160510136,3.089724506870378,-0.5923945216299882,-0.8400174868092929
9397,955454.4567467517,955454.4872337917,Right headphone,0.0018117243889719248,-0.007006063126027584,-0.014606466516852379,0.042552463710308075,0.5601252913475037,0.8273144364356995,0.1108587309718132,0.16619086265563965,0.2042548805475235,0.09768677846213687,-0.3851465987374479,-0.874825348984375,0.2771283434496453,3.0902036488659097,-0.5945369985473162,-0.8451877445485501
9398,955454.4767467517,955454.4883040001,Right headphone,-0.0004864513757638633,-0.012797483243048191,-0.012049742043018341,0.04212905466556549,0.561887800693512,0.8261402249336243,0.11333727091550827,0.15376463532447815,0.1953805834054947,0.09899000261147159,-0.3872168293060495,-0.8735750133757445,0.27772464809831826,3.090641906743172,-0.5966661750997938,-0.8501330665175686
9399,955454.4967467517,955454.50357225,Right headphone,0.0034325500018894672,-0.01723013073205948,-0.012272480875253677,0.04169173166155815,0.5636081695556641,0.8249894976615906,0.11518733948469162,0.158647820353508,0.1710694283246994,0.10025843098324352,-0.38917345063571396,-0.8723754002999139,0.2783046766390372,3.091099694551284,-0.598747316648946,-0.8548125887261885
9400,955454.5167467517,955454.5471939584,Right headphone,0.015348224900662899,-0.023032106459140778,-0.01635102741420269,0.04033862054347992,0.5653020739555359,0.8238971829414368,0.10660185664892197,0.20404483377933502,0.09410027414560318,0.10185869282694857,-0.390813853379293,-0.8713284040801793,0.2787046006053269,3.0926711354534357,-0.6007993757512238,-0.8584131778387928
9401,955454.5367467517,955454.5482104584,Right headphone,0.017222004011273384,-0.028553597629070282,-0.021674465388059616,0.03750795125961304,0.566982090473175,0.8228757381439209,0.10483937710523605,0.2368810772895813,0.0377238430082798,0.10398785623152826,-0.39191539976490586,-0.8705402063007076,0.2788344686777949,3.0960427927759278,-0.6028375355529889,-0.8602003633028612
9402,955454.5567467518,955454.5646253751,Right headphone,0.01970231905579567,-0.03487032279372215,-0.031099187210202217,0.03354540467262268,0.5688373446464539,0.8217656016349792,0.10713072866201401,0.23409397900104523,0.013510650023818016,0.1065479669147201,-0.3925338246841158,-0.869942565709718,0.27886323036159033,3.1007943317892748,-0.6050915210549057,-0.8604687851704351
9403,955454.5767467518,955454.6074532084,Right headphone,0.02131430059671402,-0.034316662698984146,-0.04931739345192909,0.030087580904364586,0.5703244805335999,0.8208683729171753,0.09833455085754395,0.2045069932937622,0.01157442294061184,0.10880814173014322,-0.3932535643607345,-0.8693594666735023,0.27879496793243624,3.1049558587132577,-0.6069008104392402,-0.8610836532261941
9404,955454.5967467518,955454.6126769584,Right headphone,0.01820794865489006,-0.03468349203467369,-0.05999692529439926,0.027558017522096634,0.5717586874961853,0.8199587464332581,0.08817188441753387,0.14079253375530243,0.03603322431445122,0.11060291953653625,-0.3939332847222946,-0.8687899718231034,0.2789042116213632,3.1079964320926536,-0.6086479199836833,-0.8619540152515902
9405,955454.6167467518,955454.6372306667,Right headphone,0.009221735410392284,-0.03826606273651123,-0.0639379471540451,0.02662137895822525,0.5733118057250977,0.8189048767089844,0.08281713724136353,0.046640247106552124,0.09378531575202942,0.11164096205179537,-0.39451049323333554,-0.8682246012976133,0.2794350391250825,3.1090957464695728,-0.6105422291041992,-0.8632347229225176
9406,955454.6367467518,955454.6496962501,Right headphone,0.011279810220003128,-0.04610798880457878,-0.07256614416837692,0.02786170318722725,0.574428379535675,0.8180803656578064,0.07528792321681976,-0.035680849105119705,0.12438123673200607,0.11164335115579788,-0.3954337610936418,-0.8675669370309168,0.28017048267872496,3.1075485584725544,-0.6119056674568593,-0.8660817129872714
9407,955454.6567467519,955454.665886,Right headphone,0.009606006555259228,-0.04623635485768318,-0.08320462703704834,0.030298883095383644,0.5753912925720215,0.8173166513442993,0.04643179103732109,-0.08479227125644684,0.1238870620727539,0.11100673766924013,-0.39625653596194,-0.8669712542053379,0.28110332133468063,3.1045386156796955,-0.6130824869338023,-0.869145865952157
9408,955454.6767467519,955454.6846530834,Right headphone,0.014454185962677002,-0.042625512927770615,-0.085909903049469,0.03322835639119148,0.575576663017273,0.8170726895332336,-0.00549808144569397,-0.09069392085075378,0.08650072664022446,0.10991626785036461,-0.397027446152546,-0.866548100779558,0.2817484010701099,3.100947646477082,-0.6133091220135325,-0.8721283702419395
9409,955454.6967467519,955454.7095964584,Right headphone,0.012602596543729305,-0.03332315757870674,-0.08814763277769089,0.03535575792193413,0.5749778151512146,0.8174044489860535,-0.07119639217853546,-0.08156976848840714,0.04269998520612717,0.10884610215216393,-0.39732544435259015,-0.8665072335282782,0.28186906040534426,3.098366072450256,-0.61257702784977,-0.873532633867004
9410,955454.7167467519,955454.7486259583,Right headphone,0.00937309954315424,-0.02945105917751789,-0.08436928689479828,0.037107016891241074,0.5732442736625671,0.8185436725616455,-0.11999022215604782,-0.11237653344869614,0.023579390719532967,0.10758481162893581,-0.39740800288908773,-0.8667980015209515,0.28134245634315447,3.0962908620219185,-0.6104598175432514,-0.8740396812377915
9411,955454.7367467519,955454.7503702501,Right headphone,-0.006158841773867607,-0.03213418647646904,-0.0820598304271698,0.040199145674705505,0.5712652802467346,0.8197803497314453,-0.12839561700820923,-0.20919078588485718,0.07072430849075317,0.10559638380682836,-0.39740054809765235,-0.8671580209539685,0.28099674307313066,3.092595580394115,-0.6080466159902114,-0.874810810009337
9412,955454.756746752,955454.7697615417,Right headphone,-0.005307653918862343,-0.026457220315933228,-0.07022513449192047,0.04554089903831482,0.569081723690033,0.8210188150405884,-0.12437311559915543,-0.2804713547229767,0.11785287410020828,0.10260398664942276,-0.3977356842542013,-0.8673613912943707,0.2810035086942619,3.086180833619196,-0.6053886785280427,-0.8772048068836182
9413,955454.776746752,955454.7845594167,Right headphone,0.002829128410667181,-0.023724477738142014,-0.06583064049482346,0.051323696970939636,0.5668706893920898,0.8222063779830933,-0.1337851732969284,-0.25932642817497253,0.09182019531726837,0.09937795022753776,-0.39800007113093705,-0.8675823797307036,0.28110634284805736,3.0792517844431218,-0.6027022621337844,-0.879589030205148
9414,955454.796746752,955454.8046258334,Right headphone,0.009607878513634205,-0.024641545489430428,-0.060612209141254425,0.055687762796878815,0.5644909739494324,0.8235587477684021,-0.14041966199874878,-0.19746194779872894,0.0229963231831789,0.09669517551137269,-0.3979953210613649,-0.8679741684181893,0.28083931227004805,3.0740771455233444,-0.5998164722508603,-0.8807410180224855
9415,955454.816746752,955454.8471505834,Right headphone,-0.003400120884180069,-0.02876105345785618,-0.05335896462202072,0.05922379344701767,0.5623294711112976,0.8247900009155273,-0.10290341079235077,-0.19707711040973663,0.03305751830339432,0.09441603194815545,-0.3978435847862937,-0.8683982661077096,0.2805186673393903,3.0699111490241133,-0.5972001821037063,-0.8812691305008236
9416,955454.836746752,955454.8483424167,Right headphone,-0.010391916148364544,-0.032943520694971085,-0.06416130810976028,0.06317760050296783,0.5613065361976624,0.8251932263374329,-0.04847082868218422,-0.22347380220890045,0.07175319641828537,0.09220676188597549,-0.39759539696306456,-0.8686279930614615,0.28089387352808515,3.0651809086196997,-0.5959636403522204,-0.8820024579598724
9417,955454.856746752,955454.8659840417,Right headphone,-0.0033891769126057625,-0.028953157365322113,-0.07368919253349304,0.06799156963825226,0.5602740049362183,0.8255119323730469,-0.022091424092650414,-0.2180676907300949,0.0904223769903183,0.0897783387673581,-0.39792439392029444,-0.8685690485782328,0.2813961917758091,3.059415383029225,-0.5947165909481917,-0.884397084319689
9418,955454.8767467521,955454.90719775,Right headphone,-0.00350000336766243,-0.03253574296832085,-0.07339917868375778,0.07251908630132675,0.5601037740707397,0.8252419829368591,0.007669189479202032,-0.22743934392929077,0.10027685016393661,0.08763707397065554,-0.398028903488857,-0.8684434641447234,0.28230946399241713,3.053941823761405,-0.5945110866364821,-0.8863757025895291
9419,955454.8967467521,955454.9082626251,Right headphone,-0.01826329529285431,-0.046069733798503876,-0.08548203110694885,0.07835894823074341,0.560451328754425,0.8244718909263611,0.06580757349729538,-0.2921409606933594,0.15784525871276855,0.08511546260827238,-0.39844438119352854,-0.8680311465728273,0.2837592637591081,3.0468360573112987,-0.5949306412439305,-0.8897289266868716
9420,955454.9167467521,955454.9372405834,Right headphone,-0.023531682789325714,-0.05588678643107414,-0.09528068453073502,0.08583676069974899,0.561846911907196,0.822775661945343,0.12289289385080338,-0.33110159635543823,0.21624231338500977,0.08218002575996279,-0.39910620350256404,-0.8672382297978803,0.2861092543010818,3.0376430216060304,-0.5966166921906048,-0.8946025048729586
9421,955454.9367467521,955454.9497470417,Right headphone,-0.007722452748566866,-0.06419233232736588,-0.10724338889122009,0.0929846242070198,0.5636482834815979,0.8207647204399109,0.13068419694900513,-0.25824740529060364,0.1668539047241211,0.07953357164709099,-0.3998352918980577,-0.8663222115891539,0.2886037116507229,3.028783576597638,-0.5987958896789503,-0.8996597480735241
9422,955454.9567467521,955454.9658942501,Right headphone,0.001909109065309167,-0.05550675839185715,-0.09866455942392349,0.09768038243055344,0.5652390122413635,0.8191236853599548,0.09934388846158981,-0.16534031927585602,0.07828722894191742,0.07785947895048098,-0.4001790880141757,-0.8656896745100355,0.2904756385975334,3.022903457421761,-0.6007229384253223,-0.9028161737022717
9423,955454.9767467522,955455.0098521668,Right headphone,-0.010870210826396942,-0.0435061939060688,-0.08683793246746063,0.10101831704378128,0.5666150450706482,0.8177667856216431,0.07551585137844086,-0.16926325857639313,0.08456047624349594,0.07665832571090095,-0.40019584693501686,-0.8652899728416895,0.2919589966293513,3.018685968449392,-0.6023920154575985,-0.9046229838326891
9424,955454.9967467522,955455.0108073751,Right headphone,-0.015129931271076202,-0.0320139080286026,-0.07985804975032806,0.10563182085752487,0.567268431186676,0.8167303204536438,0.05185040086507797,-0.2272293120622635,0.13533127307891846,0.07481022391227088,-0.400620981906032,-0.8647936423352711,0.293322763827136,3.0129718157482586,-0.6031851388943338,-0.9077073639913066
9425,955455.0167467522,955455.048436,Right headphone,-0.003474990837275982,-0.029252145439386368,-0.0718686506152153,0.11114893108606339,0.5678226947784424,0.8156123161315918,0.014725512824952602,-0.24721257388591766,0.141647607088089,0.07248194478101314,-0.4009475987456127,-0.8643189514312101,0.2948562894210712,3.0061504923826763,-0.6038583316855084,-0.9109287824122997
9426,955455.0367467522,955455.04916225,Right headphone,0.006511038634926081,-0.029795780777931213,-0.06592396646738052,0.11666212230920792,0.5674095749855042,0.8151295185089111,-0.02100890502333641,-0.24917317926883698,0.10338649898767471,0.06991792320842698,-0.4013103569427597,-0.8640108900176373,0.29588283334672916,2.9994372360222448,-0.6033565331172074,-0.9139524963812642
9427,955455.0567467522,955455.0696806667,Right headphone,-0.0006636457983404398,-0.029109615832567215,-0.05781160295009613,0.12234457582235336,0.5666490793228149,0.8148252964019775,-0.017352182418107986,-0.3017215430736542,0.12113375961780548,0.0671315730047352,-0.4015126074191043,-0.8638288818244618,0.2967837504336432,2.992557912792464,-0.6024333090294575,-0.9165739738557548
9428,955455.0767467523,955455.0860283334,Right headphone,-0.002283400157466531,-0.03467629477381706,-0.060306571424007416,0.12912748754024506,0.5661916732788086,0.8140963912010193,0.00862741656601429,-0.3553285300731659,0.12226704508066177,0.06387166109592732,-0.40159719058988647,-0.8635785848338786,0.29811433278033744,2.9842887882613307,-0.6018782541587507,-0.9194913531817306
9429,955455.0967467523,955455.1346119167,Right headphone,0.012371166609227657,-0.02754385769367218,-0.04989583045244217,0.13611911237239838,0.5660208463668823,0.813075840473175,0.00932008121162653,-0.33921048045158386,0.04781021550297737,0.060503561291781714,-0.40142937655042926,-0.8633611347352608,0.29966894467006433,2.975718502062913,-0.6016710409398285,-0.9220212564502389
9430,955455.1167467523,955455.1382793334,Right headphone,0.020437045022845268,-0.00931449793279171,-0.011915645562112331,0.14115431904792786,0.5661325454711914,0.8121387362480164,-0.01504422351717949,-0.2764526605606079,-0.06170400604605675,0.05782767446961547,-0.40041349004441834,-0.8635614959985426,0.3009760090676302,2.969506221244779,-0.6018065329700358,-0.9218607945438287
9431,955455.1367467523,955455.1457925001,Right headphone,0.01438617892563343,0.008169890381395817,0.020358728244900703,0.14406581223011017,0.566036581993103,0.811694324016571,-0.03338547423481941,-0.24301758408546448,-0.12869012355804443,0.055851352930163585,-0.39871902353029454,-0.8642166240305915,0.3017175113209631,2.9659343478777895,-0.6016901071265056,-0.9191562119191927
9432,955455.1567467523,955455.1895601667,Right headphone,-0.0009340548422187567,0.014164026826620102,0.019008461385965347,0.1464633345603943,0.5658766031265259,0.8113764524459839,-0.029236482456326485,-0.255681574344635,-0.14344778656959534,0.054008685302361144,-0.3967716088328324,-0.8650205678111665,0.30231555873801125,2.9630038231614444,-0.6014960428107947,-0.9156288002795655
9433,955455.1767467523,955455.1906265,Right headphone,-0.0022377169225364923,0.014990624971687794,0.01569513976573944,0.14902298152446747,0.5659159421920776,0.8108827471733093,-0.019790003076195717,-0.2645311951637268,-0.1585356742143631,0.05208924431961418,-0.3946814808107836,-0.8658336910000358,0.30305970143725364,2.9598422053110767,-0.6015437597221366,-0.9119157432081246
9434,955455.1967467524,955455.2208750834,Right headphone,-0.007081193383783102,0.00817579310387373,0.009823151864111423,0.15155059099197388,0.566429853439331,0.8100553750991821,0.01325182057917118,-0.2856658399105072,-0.15684373676776886,0.050226789744539896,-0.392375738391269,-0.8666423885766243,0.30405523885984,2.9566441669108263,-0.6021672618963696,-0.9078628116647444
9435,955455.2167467524,955455.2371724584,Right headphone,-0.018590819090604782,-0.0013530630385503173,0.0004787126090377569,0.15502499043941498,0.5673336982727051,0.8087643384933472,0.060395557433366776,-0.3259674608707428,-0.1264592409133911,0.04808379338642609,-0.3902695238175749,-0.8672208161298222,0.30545994293736545,2.9522086665800953,-0.6032644420439438,-0.9048283301007298
9436,955455.2367467524,955455.2496022084,Right headphone,-0.01642887108027935,0.00016564423276577145,0.004380376543849707,0.15909002721309662,0.5689049363136292,0.8068690896034241,0.08557207882404327,-0.33454984426498413,-0.1052667498588562,0.04583901791440097,-0.3882048781085554,-0.8676010530446964,0.30735041920418643,2.946920321849418,-0.6051737232762081,-0.9024017897720473
9437,955455.2567467524,955455.2870815834,Right headphone,-0.0034737829118967056,0.012378587387502193,0.01689331792294979,0.1624450981616974,0.5706005692481995,0.8050009608268738,0.06116461753845215,-0.27153709530830383,-0.1646001935005188,0.043902230445368645,-0.3860023770807211,-0.8680453414355138,0.3091473578976951,2.942471992254862,-0.607236987184963,-0.8994141340352699
9438,955455.2767467524,955455.2882636667,Right headphone,-0.0031932576093822718,0.022801239043474197,0.03334639221429825,0.16411156952381134,0.5718672871589661,0.8037629127502441,0.014965176582336426,-0.22530673444271088,-0.222057044506073,0.042540893982673494,-0.38350344702557204,-0.8687960888637867,0.31033642041373805,2.940182182360079,-0.608780282929123,-0.8948579847303354
9439,955455.2967467525,955455.3096900417,Right headphone,-0.020472891628742218,0.028399161994457245,0.0467945858836174,0.1655271351337433,0.572577714920044,0.8029669523239136,-0.013153987005352974,-0.26514989137649536,-0.2030477225780487,0.04110978178983382,-0.3808776060640932,-0.8697216717175267,0.3111697274422987,2.9382962257072944,-0.6096465279161397,-0.8897056469457684
9440,955455.3167467525,955455.348383625,Right headphone,-0.027933793142437935,0.032725945115089417,0.05544696003198624,0.1686001569032669,0.5727143287658691,0.8022299408912659,-0.023204991593956947,-0.3346159756183624,-0.13080334663391113,0.038864419770403454,-0.37856902934925396,-0.8705173886077934,0.31204923486503267,2.9344431938550635,-0.6098131531374545,-0.8858206417257078
9441,955455.3367467525,955455.3492289584,Right headphone,-0.014799236319959164,0.03247807174921036,0.045788951218128204,0.17299608886241913,0.5726587772369385,0.8013326525688171,-0.021593283861875534,-0.3652884364128113,-0.09206103533506393,0.03603298071697441,-0.37651231304601834,-0.8711514599170862,0.3131057507960853,2.9289704546497206,-0.6097454323372103,-0.8830444279923444
9442,955455.3567467525,955455.3697215418,Right headphone,-0.010541185736656189,0.015367112122476101,0.03096131607890129,0.17754662036895752,0.5730857849121094,0.8000311255455017,0.002293241675943136,-0.3843720853328705,-0.101335309445858,0.0331718813213736,-0.37426494836514645,-0.8717461689004762,0.314458293772716,2.923207468498582,-0.610266371505123,-0.8800933719688957
9443,955455.3767467525,955455.3871325001,Right headphone,-0.016182173043489456,0.0029210937209427357,0.021686509251594543,0.18283478915691376,0.5737574100494385,0.7983571290969849,0.040954966098070145,-0.4083406329154968,-0.11070948839187622,0.030056518882075167,-0.37213729455251554,-0.8721768546447906,0.31609822669291804,2.916461300507781,-0.6110861924463109,-0.8778618128091146
9444,955455.3967467526,955455.4121452083,Right headphone,-0.022098703309893608,-0.003411294659599662,0.008451571688055992,0.1880839318037033,0.5750393271446228,0.7962120175361633,0.07225874811410904,-0.4002591669559479,-0.13483387231826782,0.02704483805926277,-0.3698647603952173,-0.8725285937296718,0.3180603180144867,2.909621790165339,-0.6126521949766385,-0.8755423160712216
9445,955455.4167467526,955455.4343703334,Right headphone,-0.011287804692983627,-0.007077141664922237,0.002482965588569641,0.19185984134674072,0.5768558382987976,0.7939947247505188,0.07011910527944565,-0.3229781687259674,-0.22629861533641815,0.024677723602279693,-0.3671199744270815,-0.8730523292967936,0.319990242131859,2.9044989916373067,-0.6148742678044883,-0.871705710231095
9446,955455.4367467526,955455.4471030834,Right headphone,-0.005234940908849239,-0.015812832862138748,-0.001130932942032814,0.19269824028015137,0.5791658759117126,0.7921072840690613,0.06843797117471695,-0.21947772800922394,-0.33363503217697144,0.023553604968541114,-0.3636622391273251,-0.8739585145476222,0.32154544668963453,2.9029555002350635,-0.6177051157804624,-0.86509848526113
9447,955455.4567467526,955455.4720700417,Right headphone,-0.004549873527139425,-0.016556447371840477,-0.0029347161762416363,0.1911696195602417,0.581609845161438,0.7906855344772339,0.0658675879240036,-0.14729300141334534,-0.39405202865600586,0.02344885200784611,-0.35984273537857064,-0.8751320150051822,0.3226565031937319,2.904368246419719,-0.6207063144676237,-0.856629062830967
9448,955455.4767467526,955455.502079125,Right headphone,-0.001799653866328299,-0.011782607063651085,0.0021869614720344543,0.1885002702474594,0.5841233730316162,0.7894729375839233,0.05549654737114906,-0.12102451175451279,-0.4019046723842621,0.02384966011702862,-0.35588456300074545,-0.8764032780343518,0.3235655999822026,2.9072137852508675,-0.6237995817773548,-0.847343849565757
9449,955455.4967467526,955455.5066813334,Right headphone,-0.012623429298400879,-0.011141427792608738,0.0038774528075009584,0.1861753761768341,0.5864019989967346,0.788334310054779,0.05589890852570534,-0.15311896800994873,-0.3453179895877838,0.024098015771919553,-0.35211779799134346,-0.8775991648510599,0.3244256141625204,2.909679043911841,-0.6266097677911193,-0.8385669766819719
9450,955455.5167467527,955455.5383923751,Right headphone,-0.02682597190141678,-0.012122532352805138,0.004455940332263708,0.1859426349401474,0.5883408784866333,0.7869439125061035,0.07425076514482498,-0.2506580054759979,-0.2299911230802536,0.023485452827401446,-0.34896538879465483,-0.878461822360745,0.32554040325450806,2.9095639557543302,-0.6290054613747681,-0.8320429739127573
9451,955455.5367467527,955455.5495587084,Right headphone,-0.029826106503605843,-0.014066138304769993,0.0007990486337803304,0.18850986659526825,0.5903796553611755,0.7848029136657715,0.095386803150177,-0.33882200717926025,-0.12135408073663712,0.02175278822206726,-0.3463881082331868,-0.8788724564225646,0.3272999443317158,2.905858482638101,-0.6315291035623132,-0.8282011877575088
9452,955455.5567467527,955455.5672956667,Right headphone,-0.014652994461357594,-0.010914289392530918,-0.006430615670979023,0.19267164170742035,0.592212438583374,0.7824077606201172,0.07702770829200745,-0.3338518440723419,-0.09963139146566391,0.01937380183699396,-0.34429069850640415,-0.8790152818528599,0.32927299974118057,2.9001421897052952,-0.6338017813969099,-0.8261524683427836
9453,955455.5767467527,955455.5920874167,Right headphone,-0.0040160417556762695,-0.004331117961555719,-0.010491770692169666,0.1959996521472931,0.5933021903038025,0.7807542085647583,0.019753552973270416,-0.25552234053611755,-0.15120761096477509,0.01726995388865497,-0.34231940923305476,-0.8793148453756796,0.330642941371922,2.895636651465386,-0.6351548524392693,-0.8237129190178926
9454,955455.5967467527,955455.6097058334,Right headphone,0.0032119399402290583,-0.001278508803807199,-0.0078098527155816555,0.1966819167137146,0.5939134359359741,0.7801170349121094,-0.0496884286403656,-0.13220232725143433,-0.2508975863456726,0.01616359512196739,-0.33989410573322526,-0.8800741892694682,0.33117982611117347,2.8946212887352383,-0.6359144391865265,-0.8187801043505728
9455,955455.6167467528,955455.6483305,Right headphone,0.005770092364400625,0.007665751967579126,0.005332390312105417,0.19438622891902924,0.593769907951355,0.7808017730712891,-0.10437242686748505,-0.03117421083152294,-0.3213927447795868,0.01618637336459727,-0.3370785138155257,-0.8813506925822769,0.3306616388826245,2.8975958571969724,-0.635735999782263,-0.8112220749806031
9456,955455.6367467528,955455.64955125,Right headphone,0.002664076630026102,0.0032610720954835415,0.01725132018327713,0.19063454866409302,0.593249499797821,0.7821211814880371,-0.10780733823776245,-0.0064256382174789906,-0.3294074237346649,0.016799776188751968,-0.33415662693151954,-0.8828363503175416,0.3296318610753969,2.9025141620506223,-0.6350894075206984,-0.802589985385104
9457,955455.6567467528,955455.6696634167,Right headphone,0.004575205501168966,0.002579719526693225,0.03088301420211792,0.18709716200828552,0.5930243730545044,0.7831456661224365,-0.07824135571718216,-0.04191167652606964,-0.3000286817550659,0.017379091394771166,-0.3312277140679447,-0.8842291051592744,0.32882400173303217,2.9070837805199146,-0.6348098000676332,-0.7941864252069597
9458,955455.6767467528,955455.6871055,Right headphone,0.00031933808350004256,0.01947779953479767,0.06362829357385635,0.1855165660381317,0.5931137204170227,0.7834538221359253,-0.03157208487391472,-0.13821446895599365,-0.19320319592952728,0.017229222990792728,-0.3287017075130907,-0.885258250858953,0.32859743613632386,2.9090821634360906,-0.6349207780365641,-0.7877615874652973
9459,955455.6967467528,955455.7121455417,Right headphone,-0.013048318214714527,0.02192658558487892,0.07128395140171051,0.18736903369426727,0.5934231281280518,0.782778263092041,0.021891333162784576,-0.26724258065223694,-0.05145882070064545,0.01576022699347485,-0.3269997540063127,-0.8856976764214978,0.329184527095757,2.906649180763784,-0.6353051100719399,-0.7849170747375308
9460,955455.7167467528,955455.7470481667,Right headphone,-0.015151860192418098,0.00989499595016241,0.039463695138692856,0.19208185374736786,0.5941214561462402,0.7811043858528137,0.05560458078980446,-0.3318532705307007,0.02860082872211933,0.013201152394441756,-0.32590288154276265,-0.8856294904192142,0.3305653648445371,2.9004666969764754,-0.6361730040912418,-0.7849612764689456
9461,955455.7367467529,955455.7482499584,Right headphone,-0.00019288410840090364,0.010637111961841583,0.025918100029230118,0.1974298506975174,0.5948580503463745,0.7792081832885742,0.055670514702796936,-0.30752792954444885,0.012604807503521442,0.010425799326482006,-0.3250452899628854,-0.8854093534306035,0.3320951733494004,2.893442663786256,-0.637089056900867,-0.7858862526222682
9462,955455.7567467529,955455.7722722084,Right headphone,0.002723254729062319,0.022955656051635742,0.03413467854261398,0.2020665556192398,0.5955889225006104,0.777459442615509,0.03662906959652901,-0.28249257802963257,0.0011866410495713353,0.007955403178231197,-0.3240877658792678,-0.8852665879076888,0.33347718156008455,2.887312616846308,-0.6379985739743687,-0.786262645878446
9463,955455.7767467529,955455.8196027084,Right headphone,0.010075160302221775,0.027504470199346542,0.039435576647520065,0.20519013702869415,0.5957024097442627,0.776553750038147,-0.0069722686894237995,-0.20131011307239532,-0.051888357847929,0.006069953366243211,-0.32307260808567106,-0.885381859940994,0.33419498386966956,2.8832650894714744,-0.6381398917441742,-0.7855324635319003
9464,955455.7967467529,955455.8197556668,Right headphone,0.017431369051337242,0.03205149993300438,0.04475041478872299,0.208309605717659,0.5958178043365479,0.7756342887878418,-0.050573598593473434,-0.12012764811515808,-0.10496336221694946,0.004184465387968434,-0.32205585161071376,-0.8854926550298525,0.33491105536997157,2.879217302552386,-0.6382835715642731,-0.7848030741358938
9465,955455.816746753,955455.83455775,Right headphone,0.04265937954187393,0.030365051701664925,0.05695681273937225,0.20723293721675873,0.5953015089035034,0.7763188481330872,-0.10840535908937454,0.028840133920311928,-0.22666411101818085,0.003985945113096288,-0.32041985861232863,-0.8862790814601695,0.33440209976391144,2.88073240410092,-0.6376408581322333,-0.7803681681879897
9466,955455.836746753,955455.8497502501,Right headphone,0.03870798647403717,0.0322197787463665,0.062293216586112976,0.2033279538154602,0.5943413972854614,0.7780851125717163,-0.13393713533878326,0.08982054889202118,-0.2557757794857025,0.004974124256432214,-0.31849062680527057,-0.8874718920246064,0.3330657459507076,2.8859902580928587,-0.6364464624126294,-0.7737281676252328
9467,955455.856746753,955455.8684479167,Right headphone,0.025615524500608444,0.03083098493516445,0.0538063645362854,0.19932463765144348,0.5932278633117676,0.7799681425094604,-0.13031287491321564,0.06200481578707695,-0.21414873003959656,0.006021758473733765,-0.31665708749343924,-0.8886576561452243,0.331631755085504,2.891392947945714,-0.6350625387271861,-0.7672223499431846
9468,955455.876746753,955455.8921260834,Right headphone,0.02526460960507393,0.050186194479465485,0.0694839209318161,0.19667521119117737,0.5918455719947815,0.7816889882087708,-0.12978772819042206,0.03641285002231598,-0.15968963503837585,0.0065335164749179405,-0.3152979476299182,-0.8896245122892577,0.33032224850029757,2.8951061322467613,-0.6333465360908587,-0.7623494221902789
9469,955455.896746753,955455.9096355834,Right headphone,0.037268802523612976,0.06656333059072495,0.09305393695831299,0.19393935799598694,0.5903721451759338,0.7834848165512085,-0.14602145552635193,0.053474679589271545,-0.16006603837013245,0.007069076972739034,-0.31392509344891983,-0.8906141199588223,0.32894931236112357,2.8989361737770416,-0.6315198107811579,-0.7573905602683625
9470,955455.916746753,955455.9408463334,Right headphone,0.04926077276468277,0.08234187215566635,0.1105152815580368,0.19064942002296448,0.5885990262031555,0.7856233716011047,-0.15850937366485596,0.07787050306797028,-0.17992767691612244,0.007827317288718326,-0.31256757202993773,-0.8916912454595197,0.32730270321044674,2.9035221464119614,-0.629324797205476,-0.7521149721094981
9471,955455.936746753,955455.9520307084,Right headphone,0.044356875121593475,0.08797131478786469,0.1137864887714386,0.18784664571285248,0.5869298577308655,0.7875451445579529,-0.13532967865467072,0.02339872345328331,-0.12150309979915619,0.008400358562595573,-0.3112851226023909,-0.8926781160410312,0.32581733606906804,2.9074460435376097,-0.6272615697773624,-0.747303037294116
9472,955455.9567467531,955455.9696853751,Right headphone,0.04066109284758568,0.06831193715333939,0.09552406519651413,0.1872350126504898,0.5854988098144531,0.7887550592422485,-0.07959161698818207,-0.05982125923037529,-0.05139945447444916,0.008136310769105344,-0.31051783648832526,-0.8932839879415548,0.32489435259245336,2.9085262127432174,-0.6254951938320747,-0.7447661927362089
9473,955455.9767467531,955455.98841975,Right headphone,0.050702568143606186,0.052909400314092636,0.0887913778424263,0.1882573813199997,0.584796667098999,0.7890327572822571,-0.01878901571035385,-0.09863489121198654,-0.014110413379967213,0.007305422376430656,-0.30999751334808856,-0.8935423875000421,0.3247004897380646,2.907379007400751,-0.624629322769193,-0.7438107459800456
9474,955455.9967467531,955456.0120416251,Right headphone,0.06029905006289482,0.04434436932206154,0.0920112282037735,0.1894465684890747,0.5850051641464233,0.7885932922363281,0.03519251197576523,-0.0801045298576355,-0.03308732435107231,0.0065749203702200965,-0.30948246736310475,-0.8935979587527065,0.32505418094730326,2.9058270072530243,-0.6248864080883776,-0.7432839967043937
9475,955456.0167467531,955456.0470919583,Right headphone,0.05397268384695053,0.03981846198439598,0.09167211502790451,0.19033724069595337,0.5860905051231384,0.7875719666481018,0.08424022048711777,-0.06904292851686478,-0.03632057085633278,0.006163067019418421,-0.30896507444120863,-0.8934912594322533,0.32584659507036096,2.9044637147386974,-0.6262253093327036,-0.7429453357341658
9476,955456.0367467531,955456.0482995,Right headphone,0.05637376010417938,0.04597684368491173,0.08383937925100327,0.1906457245349884,0.5877346992492676,0.7862709164619446,0.10274001210927963,-0.02949175424873829,-0.0753045454621315,0.006126422044698927,-0.3083909474534195,-0.8933255636036098,0.326843911507182,2.9037153348268343,-0.6282560573299274,-0.7424248081623094
9477,955456.0567467532,955456.072237625,Right headphone,0.0633033812046051,0.05886054039001465,0.06836181879043579,0.18900097906589508,0.5897660255432129,0.7851462364196777,0.0906902477145195,0.039956290274858475,-0.1583433449268341,0.006923409467193117,-0.30726195649726795,-0.8933998447981008,0.327687209666697,2.9053664646707005,-0.6307690598803574,-0.7399004405025486
9478,955456.0767467532,955456.1070834168,Right headphone,0.05467412248253822,0.05979599431157112,0.048487406224012375,0.18573962152004242,0.5917381048202515,0.7844402194023132,0.07175250351428986,0.0676603764295578,-0.21711105108261108,0.008342466962842776,-0.30569203360966724,-0.8937407696205395,0.3281922704185938,2.909094845428298,-0.6332132123656752,-0.7356061709365989
9479,955456.0967467532,955456.1095241667,Right headphone,0.04092750698328018,0.05513312295079231,0.033987563103437424,0.18231916427612305,0.5937396287918091,0.7837304472923279,0.0711514949798584,0.034274592995643616,-0.2051125317811966,0.009767597858330214,-0.30390989312191585,-0.8941499194119444,0.32869356972293345,2.9130280702136093,-0.6356983568540518,-0.7307663876401319
9480,955456.1167467532,955456.13871275,Right headphone,0.03898722305893898,0.05124776065349579,0.0300923902541399,0.18002398312091827,0.595499575138092,0.7829251289367676,0.07026474922895432,-0.006888781674206257,-0.17963184416294098,0.010652997298679556,-0.30230001876641954,-0.8944704186542223,0.3292779419222677,2.9155836303729927,-0.6378873467684714,-0.726743597032687
9481,955456.1367467532,955456.1500797084,Right headphone,0.043150484561920166,0.042688921093940735,0.028215505182743073,0.17813287675380707,0.5972009301185608,0.7820610404014587,0.0661868080496788,-0.02753741480410099,-0.16980881989002228,0.011304233657854544,-0.3006300684665778,-0.8947916832983334,0.32991151351760706,2.9176399770295633,-0.6400068579948025,-0.7227508941458699
9482,955456.1567467533,955456.1698089167,Right headphone,0.03232567012310028,0.03058834746479988,0.019266385585069656,0.17684978246688843,0.5987994074821472,0.7811294198036194,0.07110811769962311,-0.0758875235915184,-0.13520781695842743,0.011652288986688597,-0.2990112290549459,-0.8950737864201296,0.33060462183892875,2.9189437195998975,-0.6420011917088876,-0.7191185746064316
9483,955456.1767467533,955456.1922210834,Right headphone,0.020791685208678246,0.023962967097759247,0.008661031723022461,0.17716145515441895,0.6003547310829163,0.7798641920089722,0.07524456828832626,-0.13685625791549683,-0.0871884822845459,0.01129694145587945,-0.2976525896291438,-0.8951732292018809,0.3315724502736233,2.918214256145635,-0.6439445448087552,-0.7168068882090325
9484,955456.1967467533,955456.2097372084,Right headphone,0.016654130071401596,0.03086647018790245,0.012190180830657482,0.17867492139339447,0.6018494367599487,0.7783656120300293,0.06735832244157791,-0.16257019340991974,-0.05614916607737541,0.010387213083518558,-0.2964431053002021,-0.8951560633752086,0.3327302367374146,2.9159505395208107,-0.6458148849059864,-0.7153831047647741
9485,955456.2167467533,955456.2483311667,Right headphone,0.017779255285859108,0.03983471542596817,0.013461040332913399,0.18037043511867523,0.6029433608055115,0.7771264314651489,0.03687896579504013,-0.13862377405166626,-0.0735088661313057,0.009363504504203512,-0.2953849440003818,-0.8951597699642055,0.3336899817979246,2.9135316021924154,-0.6471854214306445,-0.7142422134791173
9486,955456.2367467533,955456.2516569167,Right headphone,0.017441347241401672,0.05209760740399361,0.01595553569495678,0.1811109185218811,0.603574812412262,0.7764639258384705,-0.0021505863405764103,-0.08947079628705978,-0.10408056527376175,0.00867419378388683,-0.2941969263297892,-0.895365962224505,0.334204659552454,2.9124390611634237,-0.6479771310918608,-0.7121829588222243
9487,955456.2567467534,955456.2697221667,Right headphone,0.015435260720551014,0.06376171112060547,0.02614939771592617,0.18091781437397003,0.6036767363548279,0.7764295935630798,-0.031165804713964462,-0.05052567645907402,-0.11695700138807297,0.008348980992479325,-0.29301648297876554,-0.8957433793182014,0.33423853793050934,2.9126651533676444,-0.648104939541849,-0.7094925259380139
9488,955456.2767467534,955456.2896298751,Right headphone,0.0129698496311903,0.06841688603162766,0.03827379643917084,0.18026559054851532,0.6035277247428894,0.7766972184181213,-0.04348910227417946,-0.04553845152258873,-0.09525466710329056,0.008211889270785571,-0.2918563500364227,-0.8961967141109604,0.3340417835286032,2.913537975027134,-0.6479180411364268,-0.7065333591926822
9489,955456.2967467534,955456.3346260417,Right headphone,0.011205330491065979,0.07457762211561203,0.053657419979572296,0.18009084463119507,0.6030913591384888,0.7770766019821167,-0.04182516783475876,-0.0603727363049984,-0.055921100080013275,0.007892476734511883,-0.29098773599723815,-0.8965849158803187,0.33376543119409074,2.9138589095849943,-0.6473708966347543,-0.7043473843755385
9490,955456.3167467534,955456.3357573334,Right headphone,0.009763362817466259,0.06967910379171371,0.06142823398113251,0.180684894323349,0.6026907563209534,0.7772493958473206,-0.03241100162267685,-0.07830953598022461,-0.019495423883199692,0.007286240593642693,-0.2903553264776228,-0.8968380855799915,0.3336497298087409,2.913182566335806,-0.6468688274843366,-0.7030709054311827
9491,955456.3367467534,955456.3496618334,Right headphone,0.01184498704969883,0.06130198389291763,0.060051992535591125,0.18180260062217712,0.6023356318473816,0.7772639393806458,-0.01773727871477604,-0.07616425305604935,-0.012525636702775955,0.006527107045432075,-0.2899880629241125,-0.8969609644496612,0.3336544584648606,2.9118228584740407,-0.6464238362936059,-0.702653351125667
9492,955456.3567467534,955456.3722086668,Right headphone,0.011585555970668793,0.06334221363067627,0.07210442423820496,0.183027446269989,0.6021009683609009,0.7771583199501038,-0.0005699802422896028,-0.07749560475349426,0.009579787962138653,0.0057947716594944805,-0.2897750144210129,-0.8970003729162136,0.3337471368423863,2.910298962602623,-0.6461299189319539,-0.7026761262418835
9493,955456.3767467535,955456.4110127084,Right headphone,0.005915084853768349,0.06308609992265701,0.0804140493273735,0.18463990092277527,0.6021758317947388,0.7767189741134644,0.024064283818006516,-0.09523691982030869,0.03666159138083458,0.00497551971799398,-0.2896903478232495,-0.8969052762044619,0.3340893865462259,2.9082068931430496,-0.6462236255787668,-0.7032883364141811
9494,955456.3967467535,955456.4120765834,Right headphone,0.006404653191566467,0.059565652161836624,0.07963433861732483,0.18654656410217285,0.602645754814148,0.7758984565734863,0.04403819516301155,-0.0928378477692604,0.03901208937168121,0.004107672659725167,-0.28966921343437085,-0.896683370742295,0.3347145832483569,2.9056446085854404,-0.6468123942001447,-0.70433644269653
9495,955456.4167467535,955456.4370942084,Right headphone,0.011489033699035645,0.05451684445142746,0.07437476515769958,0.1879412829875946,0.6033125519752502,0.7750431895256042,0.048844028264284134,-0.04890253394842148,0.005813916679471731,0.003527825357823444,-0.2896389275697685,-0.8964546557965933,0.3353593654223907,2.903693487270938,-0.6476482202494058,-0.7051976167857519
9496,955456.4367467535,955456.4497967918,Right headphone,0.015165949240326881,0.04606359452009201,0.06343671679496765,0.18808512389659882,0.6041553616523743,0.7743514180183411,0.047968536615371704,0.007482262793928385,-0.04430635645985603,0.003528983871493914,-0.2894105599973184,-0.8963354942776376,0.33587462141608865,2.90331350031087,-0.6487054642592972,-0.7050837524840361
9497,955456.4567467535,955456.4709449584,Right headphone,0.012479729950428009,0.0418546237051487,0.05647563189268112,0.18700580298900604,0.6050616502761841,0.7739052176475525,0.046601369976997375,0.04613673686981201,-0.07362939417362213,0.004089082035133487,-0.2890183062296361,-0.8963376129057546,0.3362003227747304,2.9044985470204336,-0.6498432707359316,-0.7040368704118214
9498,955456.4767467536,955456.4921244167,Right headphone,0.0060530309565365314,0.054157182574272156,0.06946798413991928,0.18530529737472534,0.6061416864395142,0.7734692096710205,0.05490748584270477,0.04173688217997551,-0.0530654639005661,0.004948161717109457,-0.288511965882663,-0.8963791171238209,0.33651300911873827,2.906447997473909,-0.6512005097425412,-0.7024997623343683
9499,955456.4967467536,955456.5139684584,Right headphone,-0.00168191222473979,0.05837013199925423,0.0746329054236412,0.18451009690761566,0.6072533130645752,0.7727871537208557,0.07569671422243118,0.0013485116651281714,0.0013990970328450203,0.0054685098939918865,-0.28828766518800525,-0.8962610554099811,0.3370113428681402,2.9072213225720116,-0.6525988871548759,-0.7020419125751638
9500,955456.5167467536,955456.5672056667,Right headphone,0.006207872647792101,0.06636194884777069,0.08585841953754425,0.18524283170700073,0.6085346937179565,0.7716026306152344,0.07823607325553894,3.309762178105302E-05,0.01067654974758625,0.005422205005976143,-0.2884935674298565,-0.8958643006292049,0.33788941587930554,2.9059765237127038,-0.6542126811668271,-0.7033554840652744
9501,955456.5367467536,955456.5673429167,Right headphone,0.014097576960921288,0.07435633987188339,0.0970863625407219,0.1859758049249649,0.6098135113716125,0.770415723323822,0.0807754397392273,-0.0012823163997381926,0.019954005256295204,0.0053759141840741785,-0.28869919331451277,-0.895466765271395,0.3387671493830099,2.904727652155272,-0.6558252404425958,-0.7046732554982854
9502,955456.5567467536,955456.5721064584,Right headphone,0.021703828126192093,0.08509870618581772,0.11340568214654922,0.18591682612895966,0.6109116673469543,0.7695594429969788,0.05273505672812462,0.038708608597517014,-0.007203252520412207,0.005663578533842643,-0.28883354700483754,-0.8951843328070972,0.33939377296861095,2.904546268983492,-0.6572115778135064,-0.7053758078911783
9503,955456.5767467536,955456.5908458334,Right headphone,0.028152747079730034,0.10442911088466644,0.13589957356452942,0.18424035608768463,0.6115896105766296,0.7694243788719177,0.0021663489751517773,0.1068468987941742,-0.067360520362854,0.006567642243443106,-0.28867766557040486,-0.89519689073687,0.33947711137557546,2.9065658788801843,-0.6580681627415448,-0.7044677973374949
9504,955456.5967467537,955456.6133592917,Right headphone,0.03996436297893524,0.12770937383174896,0.1666010618209839,0.18057884275913239,0.6115210056304932,0.7703462839126587,-0.056286659091711044,0.1880890429019928,-0.15204723179340363,0.008206937853274632,-0.28822475076597853,-0.8956002041096531,0.338761693909617,2.911337644293085,-0.6579814556905796,-0.7016282092742057
9505,955456.6167467537,955456.6471775001,Right headphone,0.027091821655631065,0.1459573209285736,0.18222364783287048,0.17559300363063812,0.610868513584137,0.7720147371292114,-0.09302125871181488,0.19714157283306122,-0.14962732791900635,0.010305571869308852,-0.2875309017311477,-0.8962886996280932,0.3374705848839241,2.91794981122698,-0.6571570692648805,-0.6973902185265974
9506,955456.6367467537,955456.6503736668,Right headphone,0.0108802430331707,0.15497854351997375,0.18529018759727478,0.17171989381313324,0.6097310185432434,0.7737831473350525,-0.10087475180625916,0.1210799515247345,-0.06296101212501526,0.011850627496184148,-0.2870782862515257,-0.8969268158428934,0.33610706001402174,2.923209516411363,-0.6557211430763621,-0.694072831626218
9507,955456.6567467537,955456.6720715001,Right headphone,0.008181008510291576,0.15345847606658936,0.17834866046905518,0.17034479975700378,0.6082079410552979,0.775284469127655,-0.09618391841650009,0.03763126954436302,0.03128623962402344,0.012307732626198106,-0.2872358580183797,-0.8972947475970294,0.33497215443555123,2.9253104623758084,-0.6538010158574917,-0.6931990756570154
9508,955456.6767467537,955456.7020766668,Right headphone,0.012738089077174664,0.14022031426429749,0.1658821702003479,0.17100107669830322,0.606519877910614,0.776461660861969,-0.09131857007741928,-0.008018070831894875,0.10031493753194809,0.011904842889978891,-0.2878839633009607,-0.8974150246503141,0.3341070770172289,2.9248220120754995,-0.6516760712402686,-0.6943411501978265
9509,955456.6967467538,955456.7345560001,Right headphone,0.02098814956843853,0.12288611382246017,0.1467016041278839,0.17254269123077393,0.6046839952468872,0.7775515913963318,-0.08748924732208252,0.0017494644271209836,0.1229584738612175,0.011186363350527587,-0.2889446845286915,-0.8973777578546012,0.33331531910496237,2.923226055450645,-0.6493690395258873,-0.6967716344920143
9510,955456.7167467538,955456.7357274167,Right headphone,0.024509092792868614,0.10583512485027313,0.12772046029567719,0.17360635101795197,0.6028659343719482,0.7787257432937622,-0.08817653357982635,0.04823927953839302,0.10308782011270523,0.010740273979312336,-0.2900925192676613,-0.8973345384826371,0.3324482295364942,2.9222433571025577,-0.6470883214088763,-0.6991720608118978
9511,955456.7367467538,955456.750739875,Right headphone,0.020755883306264877,0.09690846502780914,0.11985073983669281,0.17345279455184937,0.6012917757034302,0.7799760103225708,-0.08178436011075974,0.0859302282333374,0.08032555133104324,0.010882143244428379,-0.2910739114324366,-0.897365063837233,0.3315020507808982,2.922771419205603,-0.645116755764384,-0.7007123313918794
9512,955456.7567467538,955456.770936375,Right headphone,0.009836937300860882,0.08293233811855316,0.10511945188045502,0.17290017008781433,0.5998117327690125,0.781237006187439,-0.061041057109832764,0.0920201912522316,0.08017230033874512,0.011253136542992804,-0.2920955447120147,-0.8973843983880059,0.3305371190708119,2.9237877128468153,-0.6432657415415383,-0.7021911460999386
9513,955456.7767467538,955456.7921090417,Right headphone,0.005673413164913654,0.06540215015411377,0.08311279863119125,0.17249886691570282,0.5986891388893127,0.7821862101554871,-0.03270411118865013,0.09426401555538177,0.08343634754419327,0.011640215885552531,-0.29318560891139295,-0.8972933703771793,0.32980496936957643,2.9245329708027596,-0.6418635045041359,-0.7040265277466267
9514,955456.7967467539,955456.8122107917,Right headphone,0.01302897185087204,0.04789794608950615,0.06206473708152771,0.17165103554725647,0.5980515480041504,0.7828601598739624,-0.012759451754391193,0.1313207745552063,0.05340779572725296,0.012312393279858192,-0.2942015285092065,-0.8971485996476648,0.32926924828069687,2.925747088447053,-0.6410677516623949,-0.7056639051892725
9515,955456.8167467539,955456.848596125,Right headphone,0.0146902771666646,0.0336926132440567,0.046859610825777054,0.16951699554920197,0.5979247093200684,0.7834218144416809,0.004706989042460918,0.18442030251026154,0.015382369980216026,0.013637275967430198,-0.29499565254100424,-0.8970443451842337,0.3287902266298402,2.928497787532447,-0.6409095012345558,-0.7063895400050951
9516,955456.8367467539,955456.8516969167,Right headphone,0.008489658124744892,0.018519321456551552,0.03549310564994812,0.16644039750099182,0.598160982131958,0.7839010953903198,0.033699531108140945,0.2112337350845337,0.010452880524098873,0.015477476301553775,-0.29573374961256355,-0.896934873454673,0.3283441077344123,2.932376583131204,-0.6412043170465558,-0.7066809436340417
9517,955456.8567467539,955456.873382,Right headphone,0.006834110245108604,0.00883433036506176,0.024456055834889412,0.1631755828857422,0.598804235458374,0.7840964794158936,0.0579940527677536,0.22092822194099426,0.015960736200213432,0.017521695111243487,-0.29656179257175486,-0.8967159148476426,0.3280925729567338,2.9364148352861847,-0.6420071877242515,-0.7072292812846547
9518,955456.8767467539,955456.8921954584,Right headphone,0.007594073656946421,0.0051541100256145,0.015051606111228466,0.15980860590934753,0.5998498201370239,0.7839905619621277,0.0716731995344162,0.23188042640686035,0.025888673961162567,0.019703641232751312,-0.29741457828023593,-0.8964038862369081,0.3280493806243625,2.940507738739977,-0.6433133465554604,-0.7079239719442578
9519,955456.896746754,955456.9121367917,Right headphone,0.011790924705564976,-0.005479829385876656,0.004331191536039114,0.15619228780269623,0.6009232401847839,0.7838974595069885,0.07020395249128342,0.251110315322876,0.0085655078291893,0.022049411327243328,-0.29836089405977056,-0.8960633796192508,0.32797114720736553,2.9449176261142833,-0.6446556505655439,-0.7087176468900469
9520,955456.916746754,955456.9345972084,Right headphone,0.00802692212164402,-0.016022806987166405,-0.014452926814556122,0.15225161612033844,0.6020498871803284,0.7838083505630493,0.07235343754291534,0.2582680881023407,0.011831388808786869,0.02455175512272252,-0.29926573089937913,-0.8957367253821813,0.327861340775189,2.949736054119697,-0.6460659352471143,-0.7092822213674151
9521,955456.936746754,955456.9522097918,Right headphone,0.006187827792018652,-0.02600456401705742,-0.03284590691328049,0.14830270409584045,0.6030646562576294,0.7837855219841003,0.06725560128688812,0.2694004476070404,0.012421873398125172,0.027076353311083816,-0.3002783816052026,-0.8953913804499455,0.32768003937734197,2.9545901977535443,-0.6473374531635477,-0.710042560729491
9522,955456.956746754,955456.9721179584,Right headphone,0.013705608434975147,-0.027569763362407684,-0.032782457768917084,0.14377063512802124,0.6039973497390747,0.783911406993866,0.05016952008008957,0.31170496344566345,-0.010294288396835327,0.029851707421827064,-0.301231034038752,-0.895106489956157,0.3273425024400828,2.9602069587230773,-0.6485071751131524,-0.7103667397363347
9523,955456.976746754,955457.0070677918,Right headphone,0.014319397509098053,-0.0287213996052742,-0.028716200962662697,0.13839010894298553,0.6045849323272705,0.7844271063804626,0.03259307146072388,0.34601572155952454,-0.02353527583181858,0.03297749727182727,-0.30218296376943904,-0.894929652794963,0.3266482667226572,2.966967851099416,-0.6492446554292518,-0.7101799681364853
9524,955456.996746754,955457.0119427918,Right headphone,0.008277698419988155,-0.03843280300498009,-0.03756004199385643,0.13282613456249237,0.6051308512687683,0.7849676012992859,0.02967713586986065,0.3332326114177704,-0.0011551487259566784,0.03618603163561465,-0.30313777488498816,-0.8947577145831357,0.3258938740875911,2.973968386071946,-0.6499301806082096,-0.7099043143838758
9525,955457.0167467541,955457.0370595834,Right headphone,0.0004428199608810246,-0.04843410849571228,-0.0513479970395565,0.12833523750305176,0.6054962873458862,0.7854323983192444,0.03757753595709801,0.2845451533794403,0.05264701321721077,0.03895147254874191,-0.3044349389304506,-0.8944471212420595,0.3252175967901559,2.9796296687618566,-0.6503892867990616,-0.710838366525719
9526,955457.0367467541,955457.0520976251,Right headphone,0.001108055585063994,-0.058394480496644974,-0.06171068921685219,0.12506020069122314,0.6060439348220825,0.7855384945869446,0.04487499222159386,0.2456146478652954,0.09428564459085464,0.041219196968012455,-0.30591610228117294,-0.8939712833298212,0.3248564566411385,2.983714621224584,-0.6510776062112121,-0.712806406809348
9527,955457.0567467541,955457.0971627918,Right headphone,0.00540188979357481,-0.07095889002084732,-0.07553292065858841,0.12248391658067703,0.6064914464950562,0.785598874092102,0.045432064682245255,0.23761822283267975,0.0991392731666565,0.043185335638183164,-0.3075741075051496,-0.8934191021169305,0.3245543293919473,2.9869265069545237,-0.6516403628690124,-0.7154636995511815
9528,955457.0767467541,955457.0982816251,Right headphone,0.0076198880560696125,-0.08214056491851807,-0.09335462003946304,0.11970880627632141,0.6069424748420715,0.785678505897522,0.039891064167022705,0.2522105574607849,0.07683814316987991,0.04522623851581968,-0.30916670149357117,-0.8928915174768186,0.3242149649923101,2.9903920841140965,-0.6522077433308676,-0.7178854657939566
9529,955457.0967467541,955457.1121283334,Right headphone,0.010127401910722256,-0.08679374307394028,-0.10286879539489746,0.11609052121639252,0.6073713302612305,0.7858898043632507,0.02966553345322609,0.28219279646873474,0.03709174320101738,0.04759058959581055,-0.3105186124625808,-0.892481468761282,0.32371303605237667,2.9949348439248022,-0.6527474250038415,-0.7193735007056175
9530,955457.1167467542,955457.1486432084,Right headphone,0.011682960204780102,-0.08911068737506866,-0.10344169288873672,0.11163924634456635,0.6077119708061218,0.7862717509269714,0.021336758509278297,0.3061446249485016,-0.0021323855035007,0.050253652222943986,-0.3116144838149355,-0.8922064517728184,0.3230151476508346,3.000550005586877,-0.6531762744059111,-0.7198796788580114
9531,955457.1367467542,955457.1532389584,Right headphone,0.013014967553317547,-0.08916734158992767,-0.10151063650846481,0.10636433213949203,0.6081133484840393,0.7866925001144409,0.01033325120806694,0.32215458154678345,-0.03213408216834068,0.053221682562499775,-0.31239744016905796,-0.8920505352760469,0.32221308251258257,3.0072032924171226,-0.6536818272650334,-0.719327388520895
9532,955457.1567467542,955457.1722372083,Right headphone,0.01195792481303215,-0.0873144119977951,-0.10207678377628326,0.10082938522100449,0.608271598815918,0.7872987985610962,0.004914057441055775,0.3157229721546173,-0.043457888066768646,0.05623445052305945,-0.31309228645296366,-0.8919768436850471,0.321229448434587,3.0142161725767207,-0.6538812052460433,-0.7183941411964433
9533,955457.1767467542,955457.1921207918,Right headphone,0.005707230418920517,-0.09052535146474838,-0.10846858471632004,0.0957975834608078,0.6084370017051697,0.7877992391586304,0.010865114629268646,0.2648351490497589,-0.016978710889816284,0.05898979460119746,-0.31375816800519885,-0.891883124146497,0.3203446109951974,3.0205854067589915,-0.6540895553109548,-0.7176357099620604
9534,955457.1967467542,955457.214656,Right headphone,0.004674129653722048,-0.0912649855017662,-0.10724197328090668,0.0921211838722229,0.6086920499801636,0.7880403995513916,0.021713372319936752,0.202703595161438,0.020385531708598137,0.06113941674247497,-0.31454600175777286,-0.8916731967529056,0.3197526361187177,3.025221925258071,-0.6544109951435738,-0.7177981182554365
9535,955457.2167467542,955457.2447189167,Right headphone,0.008641079068183899,-0.08772427588701248,-0.10176563262939453,0.08963540196418762,0.6090165376663208,0.7880761027336121,0.022768687456846237,0.16593758761882782,0.03550457954406738,0.062744417294018,-0.31541128847685396,-0.8913774898014611,0.3194134471740687,3.0283399816749617,-0.654820029847575,-0.7186965727340281
9536,955457.2367467543,955457.2597450417,Right headphone,0.012929759919643402,-0.08598556369543076,-0.10167468339204788,0.08744640648365021,0.6093252897262573,0.7880837917327881,0.012247899547219276,0.1617058515548706,0.017587533220648766,0.064150724774486,-0.31614007566696045,-0.8911214458770407,0.31912825875751033,3.0310840832321087,-0.6552094081824029,-0.7194200886645554
9537,955457.2567467543,955457.273400375,Right headphone,0.012995746918022633,-0.09054932743310928,-0.1083935871720314,0.0848117470741272,0.6093680262565613,0.7883384227752686,-0.004944406449794769,0.17739900946617126,-0.02636408805847168,0.0656589317154531,-0.3167003148951394,-0.8909939421764346,0.318621487882557,3.034422104680649,-0.6552633101782567,-0.7194927308753454
9538,955457.2767467543,955457.2933073334,Right headphone,0.01459314115345478,-0.08835349977016449,-0.10984743386507034,0.08107560873031616,0.6092532873153687,0.7888202667236328,-0.02418103627860546,0.20581120252609253,-0.07437655329704285,0.0675259607269105,-0.316841140812495,-0.8910790621548031,0.3178524045506994,3.0391716178218453,-0.6551185437996121,-0.7180866431918272
9539,955457.2967467543,955457.3370941668,Right headphone,0.012515501119196415,-0.0842423290014267,-0.1114751547574997,0.07639967650175095,0.6088377237319946,0.7896072864532471,-0.04335848242044449,0.23613649606704712,-0.10851288586854935,0.06970967011232661,-0.3167515486020259,-0.8913316787899392,0.31675999552372275,3.04513651539625,-0.6545946471927635,-0.7156696606073248
9540,955457.3167467543,955457.3382689167,Right headphone,0.011922040954232216,-0.08366470038890839,-0.11293236911296844,0.07113523781299591,0.6082198619842529,0.7905747294425964,-0.0540224090218544,0.24659445881843567,-0.12813924252986908,0.07209418571549828,-0.316530144573872,-0.8916816148188709,0.31546006911329527,3.051855327606278,-0.6538160074396374,-0.7126565830901509
9541,955457.3367467544,955457.3534617918,Right headphone,0.01058794092386961,-0.08243846893310547,-0.11019563674926758,0.06576208770275116,0.6075010895729065,0.7915918231010437,-0.055480241775512695,0.23524223268032074,-0.119527168571949,0.07448596870714158,-0.3162345673149334,-0.8920715724389686,0.3140953282782496,3.058707394313323,-0.6529108296710003,-0.7094232594035672
9542,955457.3567467544,955457.3971571667,Right headphone,0.008069425821304321,-0.07477166503667831,-0.10702455788850784,0.06091762334108353,0.6068381071090698,0.7924878597259521,-0.05573952943086624,0.19865716993808746,-0.09250196069478989,0.07663875829270463,-0.3159623579910261,-0.8924190713191,0.31286208738773896,3.0648748412229248,-0.6520764304291612,-0.7065093532771011
9543,955457.3767467544,955457.3982904584,Right headphone,0.006446068175137043,-0.07224787026643753,-0.10665106028318405,0.0571146234869957,0.6060715317726135,0.7933567762374878,-0.05071156844496727,0.15002857148647308,-0.0675114318728447,0.07831258119137496,-0.3158515318701784,-0.8927016622589874,0.31175097833089505,3.069725701541995,-0.6511123193746952,-0.7044086120247218
9544,955457.3967467544,955457.4384412084,Right headphone,0.004522570408880711,-0.07641099393367767,-0.10872650891542435,0.05444999784231186,0.6055108904838562,0.7939721345901489,-0.03813186287879944,0.10173369199037552,-0.03990047052502632,0.07947993962848716,-0.31577173609080106,-0.8929022062692057,0.3109611894056954,3.073120789988759,-0.6504076779047124,-0.702934365248159
9545,955457.4167467544,955457.4395069584,Right headphone,0.012245381250977516,-0.0769568458199501,-0.11259672790765762,0.052293144166469574,0.6049928069114685,0.7945117354393005,-0.0386493094265461,0.11029281467199326,-0.05528366565704346,0.08042110547426612,-0.315735579741926,-0.893066049635955,0.3102845492257792,3.0758696427873384,-0.6497568273038827,-0.7017953955003394
9546,955457.4367467545,955457.4534731667,Right headphone,0.030172700062394142,-0.07441714406013489,-0.11690869927406311,0.04882187768816948,0.6043233275413513,0.79524165391922,-0.058535799384117126,0.1964329481124878,-0.13027435541152954,0.08189998144516386,-0.31547000920830026,-0.8933641913493429,0.3093079814739745,3.0802772610789533,-0.648916288416347,-0.6995424616265676
9547,955457.4567467545,955457.4734559584,Right headphone,0.029089154675602913,-0.07097414135932922,-0.11965478956699371,0.04313749819993973,0.6033170223236084,0.7963337302207947,-0.07350582629442215,0.2603783905506134,-0.1935064047574997,0.08427509720151376,-0.31483683215526814,-0.8938930010324359,0.3077835879608573,3.087475576395575,-0.6476538370099926,-0.6954499940487584
9548,955457.4767467545,955457.5120813334,Right headphone,0.011743866838514805,-0.0652831494808197,-0.10327374190092087,0.03665605187416077,0.602418839931488,0.7973378300666809,-0.06148708984255791,0.24000510573387146,-0.1765877604484558,0.08698521143309665,-0.31395104545879504,-0.8944851679560909,0.3062099961859431,3.0956521054348527,-0.64652804413227,-0.6904976310683861
9549,955457.4967467545,955457.5131775417,Right headphone,0.0006495710695162416,-0.05286164954304695,-0.07764847576618195,0.0316944383084774,0.6017889976501465,0.7980257272720337,-0.03083208203315735,0.16414779424667358,-0.10401557385921478,0.08910597488890473,-0.31336166239270197,-0.894884009732169,0.30503626925065475,3.1018976083347165,-0.6457391794236484,-0.686935317664192
9550,955457.5167467545,955457.5422887917,Right headphone,0.0012226838152855635,-0.04351181536912918,-0.06605557352304459,0.02877034619450569,0.6016104817390442,0.7982710599899292,-0.007426104508340359,0.10076801478862762,-0.044766101986169815,0.09043544108022548,-0.3131226351606584,-0.8950362144670088,0.3044433646378865,3.1055675788235813,-0.6455156826660462,-0.6851206516809157
9551,955457.5367467545,955457.5598077917,Right headphone,0.010305068455636501,-0.031150829046964645,-0.061368633061647415,0.026689879596233368,0.6015753149986267,0.7983698844909668,-0.008090753108263016,0.10157445818185806,-0.045388657599687576,0.09143193145879679,-0.31304184886161984,-0.8950920744581337,0.30406438763921356,3.10817478427973,-0.6454716771697334,-0.6840478998389313
9552,955457.5567467546,955457.5734555834,Right headphone,0.01381033193320036,-0.014681094326078892,-0.04710397124290466,0.024121424183249474,0.6014207005500793,0.7985681295394897,-0.010600442998111248,0.13122157752513885,-0.07037733495235443,0.09262565298811586,-0.31290385633777035,-0.8951956805476292,0.3035396834310644,3.1113961439861053,-0.645278137660253,-0.6826202537389437
9553,955457.5767467546,955457.5933928334,Right headphone,0.006983231287449598,-0.005352372769266367,-0.029767321422696114,0.020915595814585686,0.6013568639755249,0.7987070679664612,-9.191073331749067E-05,0.14429736137390137,-0.08505929261445999,0.09411450392324068,-0.3126439815939177,-0.895325279312412,0.3029670761623815,3.1154119740449255,-0.6451982279874057,-0.680668903313876
9554,955457.5967467546,955457.6408796251,Right headphone,-0.0010910906130447984,0.0035550198517739773,-0.018335195258259773,0.017655178904533386,0.6016313433647156,0.7985785603523254,0.02561860717833042,0.12558184564113617,-0.07005519419908524,0.0956689124341978,-0.31227878728335967,-0.8954168378016673,0.30258566696856837,3.1194881516755912,-0.6455418545423758,-0.6785194006284008
9555,955457.6167467546,955457.6420035,Right headphone,-0.006769259925931692,0.005568936467170715,-0.013128872029483318,0.01526633556932211,0.6022927165031433,0.7981290817260742,0.05482419207692146,0.0851873978972435,-0.037906937301158905,0.09692803640674579,-0.3120707669467229,-0.8953638636468728,0.30255627622283066,3.1224674866793563,-0.6463701071828785,-0.6771540984565857
9556,955457.6367467546,955457.6545908334,Right headphone,-0.00900484062731266,0.007205164525657892,-0.013798034749925137,0.01401989534497261,0.6033457517623901,0.7973566651344299,0.07407645881175995,0.050982676446437836,-0.006993637420237064,0.0977731420436344,-0.3120649088223453,-0.8951502038272671,0.30292267250870925,3.1240116509756923,-0.6476898473495848,-0.6767866025085192
9557,955457.6567467547,955457.680977875,Right headphone,-0.00961454026401043,0.007011942099779844,-0.02184559404850006,0.013515432365238667,0.6046163439750671,0.796402096748352,0.08053191006183624,0.029638977721333504,0.006121757905930281,0.09833578063164042,-0.3121727499216332,-0.8948459535640937,0.3035275559252898,3.124623821264716,-0.6492840726689714,-0.6770223177392252
9558,955457.6767467547,955457.6970876667,Right headphone,-0.013026652857661247,0.004528336226940155,-0.025590522214770317,0.01324974000453949,0.6059364080429077,0.7954027652740479,0.0758194848895073,0.013738689944148064,0.014321435242891312,0.09876932834201296,-0.3122162781868059,-0.8945515331543061,0.30420920053431155,3.124936446686825,-0.6509424394773763,-0.6772239891875365
9559,955457.6967467547,955457.7145322917,Right headphone,-0.020679034292697906,-0.005728190764784813,-0.022125830873847008,0.013430951163172722,0.6071235537528992,0.7944937944412231,0.07659298926591873,-0.010336535982787609,0.027443381026387215,0.09898248147833755,-0.3123483112447547,-0.8942513617116464,0.30488602395745196,3.1246893746444555,-0.6524355440661693,-0.6777934245524754
9560,955457.7167467547,955457.7402363333,Right headphone,-0.023631950840353966,-0.013696214184165001,-0.017581216990947723,0.014169910922646523,0.6083786487579346,0.7935202717781067,0.07568179070949554,-0.033392276614904404,0.035920631140470505,0.0989279635710484,-0.3124637107078564,-0.8939388281923482,0.30570091846806224,3.1237376806524906,-0.6540160623232033,-0.6785788912091465
9561,955457.7367467547,955457.7550521251,Right headphone,-0.020042989403009415,-0.006689046043902636,-0.009759954176843166,0.015191212296485901,0.6094996333122253,0.7926405668258667,0.059728458523750305,-0.03759507089853287,0.03188339248299599,0.09870437077732266,-0.31257941315244325,-0.8936523215187245,0.30649151051216855,3.1224298313067056,-0.6554292567542326,-0.6794680454532308
9562,955457.7567467547,955457.7750186251,Right headphone,-0.02332029677927494,-0.004645354580134153,-0.012862876988947392,0.01610768958926201,0.6103331446647644,0.7919812202453613,0.036025840789079666,-0.04237859323620796,0.018603622913360596,0.09843949524971315,-0.31260501012214476,-0.8934588844443953,0.3071141664978195,3.1212571358250436,-0.6564810519875796,-0.6800648144935942
9563,955457.7767467548,955457.812727625,Right headphone,-0.032257210463285446,-0.009538104757666588,-0.013890189118683338,0.01735638454556465,0.6107954978942871,0.7915980219841003,0.027801722288131714,-0.08232105523347855,0.01950821839272976,0.09791535536575563,-0.31259283395848225,-0.8933559212802545,0.3075930885792046,3.119670564976561,-0.6570648781952373,-0.6806598142963141
9564,955457.7967467548,955457.8141719584,Right headphone,-0.033794619143009186,-0.011244328692555428,-0.006454105954617262,0.019244195893406868,0.6111564040184021,0.7912759780883789,0.020339414477348328,-0.12856142222881317,0.009208322502672672,0.0969752745247671,-0.31236052497283645,-0.8933470473485082,0.30815229866543936,3.117277140072532,-0.6575207578186322,-0.6810248483783164
9565,955457.8167467548,955457.8490479584,Right headphone,-0.027032138779759407,-0.006787388119846582,0.0010217513190582395,0.021304244175553322,0.6112748384475708,0.7911315560340881,-0.005198522936552763,-0.13171963393688202,-0.039045654237270355,0.09580163311532357,-0.3118535765507928,-0.8934837386322967,0.3086360756207834,3.1146704883188776,-0.6576703611648006,-0.6808097175192105
9566,955457.8367467548,955457.8612758334,Right headphone,-0.01729828678071499,-0.005343858618289232,0.00028952909633517265,0.021947400644421577,0.6109363436698914,0.7913751602172852,-0.04727647826075554,-0.08054336160421371,-0.13649317622184753,0.09502302011696392,-0.31073851912785744,-0.8939402830309361,0.30867929199851163,3.1138666724387734,-0.6572427681284829,-0.6785346432648532
9567,955457.8567467548,955457.874992875,Right headphone,-0.01249601598829031,-0.002673648064956069,-0.0011068782769143581,0.020541034638881683,0.6099519729614258,0.7921720743179321,-0.0824798196554184,-0.02961074560880661,-0.2241859883069992,0.09490954939458753,-0.30899742080083736,-0.8947662787958803,0.3080683405308482,3.1156685995824738,-0.6559999378400475,-0.673854578337159
9568,955457.8767467549,955457.8949234168,Right headphone,-0.014134198427200317,0.00028631454915739596,6.554141145898029E-05,0.01783587597310543,0.6085814237594604,0.7932909727096558,-0.09754384309053421,-0.028728391975164413,-0.2513471841812134,0.09519956106092414,-0.3067766335817404,-0.8958424321918179,0.3070692975853746,3.119113196794083,-0.6542715859509234,-0.6674850254142851
9569,955457.8967467549,955457.9198480417,Right headphone,-0.016761725768446922,0.0012271542800590396,-0.0004309088399168104,0.015596926212310791,0.6071603894233704,0.7944260835647583,-0.08955972641706467,-0.0679187923669815,-0.22823145985603333,0.09525052013811396,-0.3045473935098275,-0.8969191614787839,0.3061277903417997,3.1219623787861366,-0.6524819215815546,-0.6613088376856671
9570,955457.9167467549,955457.9348164167,Right headphone,-0.015212860889732838,0.0020235541742295027,-0.003159350249916315,0.014551699161529541,0.6058972477912903,0.7954099774360657,-0.07879987359046936,-0.11429779976606369,-0.18322394788265228,0.09479363685155948,-0.30245940314360786,-0.8978994149874586,0.305465594701841,3.1233002561428185,-0.6508931810587238,-0.6560013074765347
9571,955457.9367467549,955457.9549280001,Right headphone,-0.011303226463496685,0.0008055295911617577,-0.006354866083711386,0.014584511518478394,0.604739248752594,0.7962897419929504,-0.06952857971191406,-0.13883885741233826,-0.1482021063566208,0.09391868973029101,-0.30064687817783325,-0.8987526855265825,0.3050152127693703,3.123279268137921,-0.6494383689659708,-0.6517936339403769
9572,955457.9567467549,955457.9797055834,Right headphone,-0.004753486718982458,-0.00019813516701105982,-0.008782465010881424,0.0149730509147048,0.6037384271621704,0.7970420122146606,-0.062038321048021317,-0.13147208094596863,-0.13747765123844147,0.09295090332646465,-0.2989790173508226,-0.8995179931841571,0.30469521804958394,3.122809239367152,-0.6481823456455761,-0.6480893466547684
9573,955457.976746755,955457.9947325834,Right headphone,0.00048777685151435435,-0.0036525088362395763,-0.011260470375418663,0.015105615369975567,0.602785587310791,0.7977601289749146,-0.061122480779886246,-0.09244105219841003,-0.1481723040342331,0.0921640494220919,-0.29743130787662464,-0.9002303850024949,0.3043446490691702,3.1226600311304447,-0.6469876101460336,-0.6445545735910092
9574,955457.996746755,955458.0398772918,Right headphone,0.00421949615702033,-0.005780742969363928,-0.018758902326226234,0.01418762281537056,0.6018134951591492,0.798510730266571,-0.06387624144554138,-0.031613994389772415,-0.17016348242759705,0.0919016901403209,-0.2958863310105784,-0.9009476669710843,0.30380709312427967,3.1238270676163724,-0.6457699051999893,-0.640582766077943
9575,955458.016746755,955458.0408477084,Right headphone,0.0017148051410913467,-0.0066532474011182785,-0.02323194406926632,0.012249416671693325,0.6008201837539673,0.7992905974388123,-0.06161326915025711,0.0050954618491232395,-0.1641506552696228,0.09215141636817502,-0.2943509335609589,-0.9016667323226408,0.3030889530057218,3.126268641691277,-0.6445267066589054,-0.636206244296557
9576,955458.036746755,955458.0561755,Right headphone,-0.00437998678535223,-0.010002694092690945,-0.027854029089212418,0.010397495701909065,0.6000739932060242,0.7998771071434021,-0.03707483410835266,-0.010699604637920856,-0.11199171841144562,0.09248615215434734,-0.2930385878296589,-0.9022566169723155,0.3025025908280568,3.128594667697157,-0.6435935511154898,-0.632406668356746
9577,955458.056746755,955458.1023698334,Right headphone,-0.008750530891120434,-0.0163273848593235,-0.03250401094555855,0.010092422366142273,0.5997746586799622,0.800105094909668,-0.0027014438528567553,-0.06628063321113586,-0.028919776901602745,0.0923132749701678,-0.2922475721291722,-0.9025763034559042,0.3023666779739453,3.128979599433807,-0.6432194609848424,-0.6304814175876982
9578,955458.076746755,955458.1045387083,Right headphone,-0.00725276954472065,-0.016920458525419235,-0.03330768644809723,0.011878966353833675,0.5999764800071716,0.7999293804168701,0.02623538300395012,-0.11922186613082886,0.04788203164935112,0.09140738380850061,-0.2920921986796517,-0.9025779289755589,0.30278697024690415,3.126743875365678,-0.6434716597145348,-0.6309157714519291
9579,955458.0967467551,955458.1185080417,Right headphone,-0.0008431643946096301,-0.02214197814464569,-0.03843449056148529,0.014874793589115143,0.6005127429962158,0.7994769215583801,0.039708513766527176,-0.132207453250885,0.08400630205869675,0.09009740518853768,-0.29233475351692734,-0.902374045877405,0.30355234020503163,3.122989291621386,-0.6441421532005955,-0.6327932336673755
9580,955458.1167467551,955458.142157625,Right headphone,0.0024726742412894964,-0.028324497863650322,-0.04788746312260628,0.017916345968842506,0.60109943151474,0.7989736199378967,0.04021064192056656,-0.11146380752325058,0.091450534760952,0.08882743280357909,-0.2927312291501765,-0.9021060443975746,0.30434019296873344,3.1191723590610927,-0.6448760461888601,-0.6350457764036322
9581,955458.1367467551,955458.1605948751,Right headphone,0.002000522566959262,-0.03573852777481079,-0.06114085018634796,0.020620614290237427,0.6017096638679504,0.7984488606452942,0.04395928233861923,-0.09841417521238327,0.09535357356071472,0.08774342852086844,-0.2931614631170072,-0.9018208569279588,0.30508478806010886,3.115772701089264,-0.6456398680026205,-0.6372414434480543
9582,955458.1567467551,955458.176114375,Right headphone,-0.0022483321372419596,-0.046550776809453964,-0.07668646425008774,0.023558348417282104,0.6024565696716309,0.7978038191795349,0.05222749710083008,-0.10550156235694885,0.11223586648702621,0.08662472714668672,-0.29374876148223145,-0.9014508625691934,0.3059316757745217,3.112072384824048,-0.6465753560747131,-0.6399142547051297
9583,955458.1767467551,955458.2196437917,Right headphone,-0.0012525379424914718,-0.0526236928999424,-0.08832023292779922,0.026792410761117935,0.6032081246376038,0.7971334457397461,0.0543023943901062,-0.10367714613676071,0.1207415759563446,0.08541361786530904,-0.2944922774060476,-0.9010222471937139,0.30681863143842514,3.107994504321116,-0.6475173274020412,-0.643070076489261
9584,955458.1967467552,955458.2207650418,Right headphone,-0.0001055523898685351,-0.05614675581455231,-0.09437885135412216,0.02997506596148014,0.6039555072784424,0.7964539527893066,0.049702491611242294,-0.1021745353937149,0.12255077809095383,0.0842474312838591,-0.295288776682339,-0.900572923200147,0.30769347843744166,3.1039749049167216,-0.6484546713220014,-0.6463311521094984
9585,955458.2167467552,955458.2360528334,Right headphone,-0.0005303775542415679,-0.0587419793009758,-0.10078136622905731,0.03317847102880478,0.604672372341156,0.7957834005355835,0.04402056336402893,-0.11310717463493347,0.1359618604183197,0.08305904764476252,-0.2960628000541727,-0.9001325306243646,0.30856064453159465,3.099924096049444,-0.6493544101785469,-0.6495561174597795
9586,955458.2367467552,955458.2804803334,Right headphone,-0.004781042225658894,-0.05775243043899536,-0.10535567998886108,0.036926496773958206,0.6052027940750122,0.7952144742012024,0.03279479220509529,-0.13681979477405548,0.15939469635486603,0.0816066838335729,-0.2969638450826902,-0.8996776022082628,0.30940768729241963,3.0951902439282266,-0.6500205958716595,-0.6532741900228822
9587,955458.2567467552,955458.2808924584,Right headphone,-0.00713730975985527,-0.058391328901052475,-0.11283312737941742,0.04142211377620697,0.6054048538208008,0.794839084148407,0.013899107463657856,-0.1624535173177719,0.17614080011844635,0.07977462493625728,-0.2980321589591838,-0.8992199113485807,0.3101877669071374,3.089526074363604,-0.6502744145434236,-0.6576358095966629
9588,955458.2767467552,955458.2964641667,Right headphone,-0.014451569877564907,-0.06884438544511795,-0.1230306327342987,0.0466182678937912,0.6053959727287292,0.7945581078529358,0.00509805278852582,-0.20318163931369781,0.1969858705997467,0.07756669917433315,-0.29913838190087666,-0.8987743574543381,0.3109732549170648,3.0829880505285763,-0.6502632181932557,-0.6623539444041211
9589,955458.2967467553,955458.3405191251,Right headphone,-0.018437325954437256,-0.082413449883461,-0.1295139193534851,0.05287934094667435,0.6053763031959534,0.7941809892654419,0.018077094107866287,-0.25785622000694275,0.22209949791431427,0.0748453617580554,-0.30028730915433427,-0.89828619631995,0.3119418162978615,3.075107454171649,-0.650238531827412,-0.6676392989965381
9590,955458.3167467553,955458.3408752917,Right headphone,-0.017269376665353775,-0.0892375186085701,-0.1321837604045868,0.06027431786060333,0.6054989099502563,0.7935600876808167,0.03530349209904671,-0.29700708389282227,0.24132198095321655,0.07163360879816323,-0.30154770051181934,-0.8976909885719829,0.3131907356874644,3.0657840511908785,-0.6503926008788645,-0.6737150839502798
9591,955458.3367467553,955458.3561299584,Right headphone,-0.012167070060968399,-0.0905470922589302,-0.13164611160755157,0.06798494607210159,0.605817973613739,0.7926933765411377,0.043943583965301514,-0.2967490553855896,0.22634229063987732,0.06829133841651171,-0.30274918443328913,-0.8970449794046713,0.3146261775529952,3.056037676441417,-0.6507935657449051,-0.6798657693647829
9592,955458.3567467553,955458.376336875,Right headphone,-0.00859582144767046,-0.08808356523513794,-0.1277332752943039,0.07488277554512024,0.6062716245651245,0.7917245030403137,0.03949698805809021,-0.2722567617893219,0.17791211605072021,0.06525469140074379,-0.30357741952731726,-0.896494877854833,0.3160374368427651,3.0472914770745336,-0.6513638586717087,-0.6848818644944902
9593,955458.3767467553,955458.4240752084,Right headphone,-0.016734840348362923,-0.0877375528216362,-0.12376672774553299,0.08104145526885986,0.6066372990608215,0.7908369898796082,0.03741155192255974,-0.2662525475025177,0.14084726572036743,0.06246383994767767,-0.3041045743154717,-0.8960686234797489,0.31730058074177614,3.0394737284205537,-0.6518237648800163,-0.6888979239898441
9594,955458.3967467553,955458.4363780417,Right headphone,-0.02517220377922058,-0.08547841012477875,-0.12264693528413773,0.08698863536119461,0.6069944500923157,0.7899306416511536,0.03632726892828941,-0.278086394071579,0.11712434142827988,0.05969265731343816,-0.30438991302164103,-0.8957188065894354,0.31854570114444347,3.031912880255675,-0.6522731217881758,-0.69229597189027
9595,955458.4167467554,955458.4371570417,Right headphone,-0.02417735382914543,-0.07839310169219971,-0.11874223500490189,0.092612624168396,0.6072874665260315,0.7890656590461731,0.024086277931928635,-0.2735336720943451,0.07780322432518005,0.056962564290599545,-0.3043742766564795,-0.895482656848234,0.3197223070482283,3.024757363405744,-0.652641869106281,-0.6948763465187108
9596,955458.4367467554,955458.4608857917,Right headphone,-0.017571330070495605,-0.07124536484479904,-0.11140212416648865,0.09725382924079895,0.6074149012565613,0.7884087562561035,-0.00046296094660647213,-0.24616438150405884,0.011358572170138359,0.054519274925033584,-0.3038940942509243,-0.8954623543988464,0.3206604458940402,3.0188582583375845,-0.6528022934717695,-0.6959422676554331
9597,955458.4567467554,955458.4772320418,Right headphone,-0.01210964284837246,-0.06065274402499199,-0.09541336447000504,0.1008346751332283,0.6072829961776733,0.7880606055259705,-0.019918054342269897,-0.23421403765678406,-0.04113397002220154,0.05238897901230443,-0.3029723087062451,-0.8956774762673474,0.32128648753408284,3.0143313702119148,-0.6526362301344573,-0.6954756483872871
9598,955458.4767467554,955458.5021622084,Right headphone,-0.01359765138477087,-0.04784226790070534,-0.07361149787902832,0.10413408279418945,0.6069927215576172,0.7878555059432983,-0.024624906480312347,-0.2613662779331207,-0.04952939599752426,0.050256827042013424,-0.30174898987762444,-0.8960331249834577,0.32178655737878264,3.010180446713961,-0.6522709658713705,-0.6941666254697406
9599,955458.4967467554,955458.5234136668,Right headphone,-0.010166140273213387,-0.041874684393405914,-0.05697387829422951,0.10796519368886948,0.6067708730697632,0.787510097026825,-0.01781226508319378,-0.2899903357028961,-0.04880146309733391,0.04784170557802656,-0.3004348226065297,-0.8963782890617065,0.3224220370168531,3.00534529486354,-0.6519918157522866,-0.6929192109718376
9600,955458.5167467555,955458.53717675,Right headphone,0.003585374914109707,-0.03523670881986618,-0.04317133128643036,0.11170335114002228,0.6066604256629944,0.7870740294456482,-0.02330203540623188,-0.2775134742259979,-0.08440010249614716,0.04541529211960205,-0.298902768500655,-0.8967687618251755,0.32311054893218,3.000612026073409,-0.6518528713227938,-0.6911793113922723
9601,955458.5367467555,955458.5795629584,Right headphone,0.018151283264160156,-0.02660699188709259,-0.027316678315401077,0.11446505039930344,0.6063999533653259,0.7868777513504028,-0.03769858554005623,-0.23961679637432098,-0.1345098614692688,0.043341569232158095,-0.297093094315856,-0.8973152400144278,0.3235468056388652,2.9971386602158527,-0.6515252409663408,-0.6883338170880623
9602,955458.5567467555,955458.580750375,Right headphone,0.014164526015520096,-0.023835180327296257,-0.01969284936785698,0.11646835505962372,0.6060879230499268,0.7868241667747498,-0.03686196357011795,-0.23597027361392975,-0.1325618475675583,0.04156697048297087,-0.2950998472324753,-0.8979578217900023,0.3238209341121508,2.9946365808881037,-0.651132892529587,-0.6847196363376155
9603,955458.5767467555,955458.5971587917,Right headphone,0.006690610200166702,-0.02703595906496048,-0.024055590853095055,0.11904524266719818,0.6059066653251648,0.7865779995918274,-0.015797995030879974,-0.26394766569137573,-0.08891786634922028,0.03959620136243877,-0.2932826674032124,-0.898484475676287,0.32425761851463014,2.9913869864873917,-0.6509050228469163,-0.6818018474591109
9604,955458.5967467555,955458.6221012084,Right headphone,0.011907939799129963,-0.023948170244693756,-0.02666347846388817,0.1224154680967331,0.6058734059333801,0.7860866189002991,-0.011588454246520996,-0.25864851474761963,-0.06467024981975555,0.03737434565136871,-0.29178547329076193,-0.8988351502315252,0.3248998470168992,2.9871059612523405,-0.6508632353936158,-0.6800079835541392
9605,955458.6167467555,955458.6397440417,Right headphone,0.01718899793922901,-0.01212726254016161,-0.027589373290538788,0.12550845742225647,0.6057852506637573,0.7856665849685669,-0.025329381227493286,-0.21622341871261597,-0.053015612065792084,0.03534004689647727,-0.2904595449559665,-0.899147712035141,0.3254501448186155,2.983183518437348,-0.6507524078441992,-0.6784552400368261
9606,955458.6367467556,955458.657279,Right headphone,0.014426257461309433,-0.011981626972556114,-0.029335975646972656,0.12791165709495544,0.6053391098976135,0.785622775554657,-0.048754651099443436,-0.16582857072353363,-0.05320639908313751,0.033660395414967695,-0.2893584802809908,-0.8994904900016845,0.32566171683287326,2.9801934364809135,-0.6501917908882613,-0.6769784911233429
9607,955458.6567467556,955458.6821754167,Right headphone,0.01722513698041439,-0.007316264323890209,-0.01831197179853916,0.12941035628318787,0.6044811010360718,0.7860382199287415,-0.07305216044187546,-0.10513389855623245,-0.06015833839774132,0.032423468403304054,-0.2884546098505613,-0.8998961715022827,0.3254684753682533,2.9784203560876334,-0.6491142882998877,-0.6753977235366349
9608,955458.6767467556,955458.7021593334,Right headphone,0.015997685492038727,-0.006921655498445034,-0.01384374126791954,0.1299903243780136,0.6033775806427002,0.7867894768714905,-0.0817703902721405,-0.06008481979370117,-0.050222545862197876,0.03165509644581075,-0.2877085143171867,-0.900343610023694,0.3249663169389717,2.977855776005977,-0.6477297963051369,-0.6736699306796408
9609,955458.6967467556,955458.7183325418,Right headphone,0.008863926865160465,-0.014261666685342789,-0.017188716679811478,0.13065025210380554,0.602299690246582,0.7875056862831116,-0.056687526404857635,-0.07422155141830444,0.0024624518118798733,0.030973617563335876,-0.28729668751824705,-0.9006739367311545,0.3244806074691091,2.9771863986299967,-0.6463788278594393,-0.6727296441800482
9610,955458.7167467556,955458.7421801668,Right headphone,0.0038942645769566298,-0.018909940496087074,-0.01515768188983202,0.1327996402978897,0.6017431616783142,0.7875720858573914,-0.0011564602609723806,-0.13258366286754608,0.08874478936195374,0.02981868893150403,-0.287352234123696,-0.9006746475417909,0.3245379501029938,2.97454514815429,-0.6456818206001099,-0.6736665145711912
9611,955458.7367467557,955458.7598236668,Right headphone,0.005118353758007288,-0.016976065933704376,-0.0036336281336843967,0.13675636053085327,0.6018641591072083,0.7868017554283142,0.0503666028380394,-0.16461291909217834,0.15012404322624207,0.028085059385414644,-0.28793945461797477,-0.9002731942312185,0.3252848940089537,2.9694991226231773,-0.6458333187251586,-0.67682177905683
9612,955458.7567467557,955458.7784586668,Right headphone,0.01591251790523529,-0.006211778614670038,0.012649769894778728,0.14104336500167847,0.6023842096328735,0.7856460809707642,0.06988733261823654,-0.1365458220243454,0.1387150138616562,0.02635548742523565,-0.2887788801994413,-0.8996832110871135,0.32631616978252864,2.9639597044309607,-0.6464846703454714,-0.6808252439237068
9613,955458.7767467557,955458.8021979168,Right headphone,0.01715180277824402,0.00626148609444499,0.0246328916400671,0.14417344331741333,0.6031621098518372,0.7844806909561157,0.07116486132144928,-0.08282706141471863,0.09692811965942383,0.02519619955313897,-0.2894644585210275,-0.8991389007649827,0.3272994303851429,2.9598389910736396,-0.6474596311308876,-0.6840488715090365
9614,955458.7967467557,955458.8345842501,Right headphone,0.01706547848880291,0.011172126978635788,0.025010915473103523,0.14585340023040771,0.6040515303611755,0.7834849953651428,0.06219765171408653,-0.020113524049520493,0.0375327430665493,0.024681260811132203,-0.28987795814282796,-0.898728735279223,0.3280980994087049,2.957539873004118,-0.6485751437752673,-0.6860402586352786
9615,955458.8167467557,955458.83820825,Right headphone,0.026288431137800217,0.02208915539085865,0.02875354327261448,0.1455327868461609,0.6047674417495728,0.7829917669296265,0.03757060691714287,0.07194065302610397,-0.038505420088768005,0.025021765637601365,-0.289999615690947,-0.8985522642796016,0.32844769287381553,2.9578223061333104,-0.6494738231282171,-0.6863965571145342
9616,955458.8367467558,955458.8660646251,Right headphone,0.032898250967264175,0.030588187277317047,0.03875488415360451,0.1427866816520691,0.6053275465965271,0.7830648422241211,0.015834033489227295,0.14637097716331482,-0.09710531681776047,0.02638436266803262,-0.2896993153753725,-0.8986694701236995,0.3282855929005016,2.9612309843340054,-0.6501773017144828,-0.6846298294709784
9617,955458.8567467558,955458.8796980417,Right headphone,0.02194279618561268,0.02812589332461357,0.04410875216126442,0.13942494988441467,0.60590660572052,0.7832229137420654,0.030667699873447418,0.1224619671702385,-0.07077764719724655,0.028037661902435205,-0.28934537328619125,-0.8988274435466258,0.3280281888329007,2.9654238395554895,-0.6509049982581249,-0.6824620135695156
9618,955458.8767467558,955458.8983778751,Right headphone,0.009926695376634598,0.023853784427046776,0.04235200956463814,0.13799485564231873,0.6067250967025757,0.7828424572944641,0.07243221253156662,0.027816271409392357,0.03006753697991371,0.028931685992675205,-0.28941665155029744,-0.8986986797066021,0.32824041231794154,2.9671111810440634,-0.6519342197522833,-0.6822162334097549
9619,955458.8967467558,955458.9395659168,Right headphone,0.009978010319173336,0.01334496308118105,0.02960621565580368,0.13927245140075684,0.6079607605934143,0.7816563844680786,0.1155291348695755,-0.04812576249241829,0.10548118501901627,0.028780842423458533,-0.2900929027725875,-0.8981505349312415,0.3291555863551341,2.9652671525272796,-0.6534896488839724,-0.6847168835098727
9620,955458.9167467558,955458.9407955834,Right headphone,0.016809960827231407,-0.00029633217491209507,0.019443077966570854,0.14153288304805756,0.6097337603569031,0.7798677086830139,0.1384795606136322,-0.06412410736083984,0.10170778632164001,0.02825871072740888,-0.2908016206807927,-0.8974231630839433,0.3305566405313965,2.9620636082994056,-0.6557246046860005,-0.6879382088671175
9621,955458.9367467558,955458.95842725,Right headphone,0.023749709129333496,-0.0015541757456958294,0.023631537333130836,0.14315900206565857,0.6116893291473389,0.7780370116233826,0.13294164836406708,-0.02060154639184475,0.03237148001790047,0.02799808716540455,-0.2912612106352476,-0.8967638917993542,0.3319601656490602,2.959627895136457,-0.6581942108069012,-0.6903822935582206
9622,955458.9567467559,955458.9821450834,Right headphone,0.032191574573516846,0.009205128066241741,0.0386950857937336,0.1425754725933075,0.6135560870170593,0.7766731381416321,0.09504961222410202,0.07102381438016891,-0.0790041983127594,0.028599940247113386,-0.2911246542444007,-0.8964279620384854,0.3329346056579931,2.9600421096049234,-0.6605561046697516,-0.6904243689136466
9623,955458.9767467559,955459.0020872917,Right headphone,0.034239184111356735,0.02500205487012863,0.053248435258865356,0.13908591866493225,0.6150491237640381,0.7761245369911194,0.047499943524599075,0.15961068868637085,-0.182035893201828,0.03031621383577304,-0.29028930839749306,-0.8965458570847714,0.3331944339743024,2.9642693947016485,-0.6624482667765789,-0.6873890858182471
9624,955458.9967467559,955459.0184443333,Right headphone,0.01598658412694931,0.025759117677807808,0.051644325256347656,0.13411644101142883,0.6161554455757141,0.7761216759681702,0.02964680828154087,0.15877819061279297,-0.20046274363994598,0.03255160264839809,-0.28906655062182723,-0.8969400506560209,0.33298561202404064,2.9704793102283555,-0.6638520972262973,-0.6826471481174713
9625,955459.0167467559,955459.0421585834,Right headphone,0.0068449825048446655,0.02106345072388649,0.045968927443027496,0.12966307997703552,0.6171353459358215,0.7761004567146301,0.03199777379631996,0.09918683767318726,-0.17013052105903625,0.03447472519861014,-0.2877559396109073,-0.8973554623684526,0.33280831281456313,2.9760517673166342,-0.6650968322224856,-0.6779121725038874
9626,955459.0367467559,955459.0597552501,Right headphone,0.005308501422405243,0.029306333512067795,0.04247341305017471,0.1267780363559723,0.6179755330085754,0.7759079933166504,0.02982032112777233,0.03297627344727516,-0.11890608072280884,0.03565703243945133,-0.28662549634065393,-0.8976635712623608,0.3328279707514713,2.9796308837184013,-0.6661650598986142,-0.6742811110572855
9627,955459.056746756,955459.0785337917,Right headphone,0.0005189533694647253,0.03644537925720215,0.03678666055202484,0.12570025026798248,0.6186071038246155,0.7755804061889648,0.024727165699005127,-0.02704409882426262,-0.058528803288936615,0.0360243870650789,-0.28583697380173945,-0.8978237566812153,0.333034678440346,2.980917442289227,-0.6669686449642096,-0.6722081188527896
9628,955459.076746756,955459.1346014584,Right headphone,-0.0015408160397782922,0.026345156133174896,0.02672755718231201,0.12697991728782654,0.6190282106399536,0.7750354409217834,0.025244934484362602,-0.05282208323478699,-0.027327490970492363,0.035363120822182056,-0.2855577755972685,-0.8977608617820739,0.3335140578529435,2.9791980415094144,-0.6675046728234567,-0.6723316098704897
9629,955459.096746756,955459.1347475834,Right headphone,-0.003599857445806265,0.016245326027274132,0.016670988872647285,0.1282586306333542,0.6194490790367126,0.7744885683059692,0.025762703269720078,-0.07860007137060165,0.003873820649459958,0.03470186774785047,-0.2852783604974089,-0.897697392823638,0.3339932141364,2.9774779826665774,-0.6680407059680724,-0.6724563749171721
9630,955459.116746756,955459.1380682084,Right headphone,0.008618330582976341,0.014822167344391346,0.01629963517189026,0.1288149654865265,0.6197552680969238,0.7741509675979614,-0.00032928716973401606,-0.01107571367174387,-0.06027781963348389,0.034330116848375225,-0.2848677246016863,-0.8977337739483855,0.3342840385356584,2.976708332183277,-0.6684307713116056,-0.6719066268252103
9631,955459.136746756,955459.1656547918,Right headphone,0.011972610838711262,0.03025992214679718,0.031125355511903763,0.12691307067871094,0.6197173595428467,0.7744959592819214,-0.043800972402095795,0.08874589204788208,-0.14638875424861908,0.03496237281636432,-0.28403335917234873,-0.8980941547312464,0.3339607292829733,2.9791709487391382,-0.6683824674433535,-0.6691222094000124
9632,955459.156746756,955459.1797052918,Right headphone,0.006369373295456171,0.044359397143125534,0.0492287203669548,0.12277042120695114,0.619196891784668,0.7755787372589111,-0.07983793318271637,0.15521329641342163,-0.20039474964141846,0.03650212004358507,-0.2828723253886819,-0.8987617534580766,0.33298367887871716,2.9846002021536084,-0.6677195010924015,-0.6643908849963096
9633,955459.1767467561,955459.199365125,Right headphone,-0.01396786980330944,0.049636587500572205,0.05285429581999779,0.1184488981962204,0.6183459758758545,0.776928722858429,-0.07936782389879227,0.11487510055303574,-0.15228153765201569,0.038104543866901,-0.28180115177075316,-0.8994734778955712,0.3317886452932678,2.9902999513113895,-0.6666363561225246,-0.6596904233973828
9634,955459.1967467561,955459.2220549167,Right headphone,-0.02656525745987892,0.0490700863301754,0.04955181106925011,0.11603715270757675,0.6175022125244141,0.7779630422592163,-0.058922071009874344,0.026409419253468513,-0.056182969361543655,0.038892727268026756,-0.2811015611657673,-0.899979727125742,0.33091665644790685,2.9935292830730766,-0.6655631372903594,-0.6567405512284807
9635,955459.2167467561,955459.2395982083,Right headphone,-0.020322615280747414,0.05400032177567482,0.053768981248140335,0.11582190543413162,0.6166494488716125,0.7786712050437927,-0.05353411287069321,-0.01985020376741886,0.006436749827116728,0.0387665836287611,-0.28090541084631354,-0.9002376503901608,0.3303960482005301,2.993932415445933,-0.6644794383796836,-0.6559507286779661
9636,955459.2367467561,955459.2596179168,Right headphone,-0.006072695832699537,0.05619564279913902,0.050252243876457214,0.11603447049856186,0.6156328916549683,0.7794433236122131,-0.0747867077589035,0.014559505507349968,-0.0009959201561287045,0.03849141259520769,-0.28096994321448027,-0.9004319047074052,0.32984339127229734,2.993809755579138,-0.6631888360736002,-0.6558942903684732
9637,955459.2567467561,955459.2821245417,Right headphone,0.0020291598048061132,0.06003474444150925,0.0497400127351284,0.11498613655567169,0.6142215132713318,0.7807110548019409,-0.10651551187038422,0.0846489742398262,-0.04630926623940468,0.038749561678391456,-0.2809723253116802,-0.9007830706761314,0.328850761457637,2.99536029020972,-0.6613990703945846,-0.6549944606325446
9638,955459.2767467562,955459.3347299168,Right headphone,0.0012570430990308523,0.07322396337985992,0.06693978607654572,0.11176838725805283,0.6123072504997253,0.7826796770095825,-0.12816108763217926,0.13124531507492065,-0.06823226064443588,0.039935516767990016,-0.2808037072864514,-0.9013818219299407,0.3272082524236527,2.9997495905437668,-0.6589755511648081,-0.6525697594216925
9639,955459.2967467562,955459.3348658334,Right headphone,0.0004876485327258706,0.08642341196537018,0.08415400981903076,0.1085478663444519,0.6103827953338623,0.7846340537071228,-0.1498066633939743,0.1778416484594345,-0.09015525877475739,0.041121340010835374,-0.28063386849907174,-0.9019765723268265,0.32556428469542525,3.0041233429538927,-0.6565437650161062,-0.6501631676198169
9640,955459.3167467562,955459.3396887084,Right headphone,0.005589337088167667,0.10598842054605484,0.10182633250951767,0.10430911183357239,0.6081318259239197,0.7869535088539124,-0.16478131711483002,0.20419766008853912,-0.09396223723888397,0.042746850007833466,-0.28043961999831446,-0.9026795902247388,0.32356773321433113,3.009812973218158,-0.6537050789059091,-0.6471743459919452
9641,955459.3367467562,955459.3597230418,Right headphone,0.004716654773801565,0.11946073174476624,0.11558219790458679,0.10015498846769333,0.6057084798812866,0.7893578410148621,-0.1575005203485489,0.17965056002140045,-0.05166810378432274,0.04435515851639653,-0.2804035673335498,-0.9033564299562165,0.32148649423341774,3.015385589492767,-0.6506559576733841,-0.6445660026638012
9642,955459.3567467562,955459.382171125,Right headphone,-0.001705625094473362,0.12109433859586716,0.12283793836832047,0.09768596291542053,0.6034919023513794,0.7913629412651062,-0.125351682305336,0.10607308894395828,0.02824661321938038,0.04531468928434734,-0.2808029229561611,-0.9037871741128044,0.3197892741169099,3.0187739554847406,-0.6478731446457761,-0.6437650260144239
9643,955459.3767467563,955459.4021382917,Right headphone,0.007976748049259186,0.1157381609082222,0.12424339354038239,0.09732243418693542,0.6016263365745544,0.7928262948989868,-0.09146396070718765,0.05616900324821472,0.08145949989557266,0.045463469504120856,-0.2817013828043582,-0.9039123507484064,0.3186216388963656,3.019450066275074,-0.6455355544108264,-0.6451121257963963
9644,955459.3967467563,955459.4221052084,Right headphone,0.021397532895207405,0.10927139967679977,0.12079812586307526,0.09756070375442505,0.6002451181411743,0.7938435673713684,-0.06695282459259033,0.058505501598119736,0.0848030224442482,0.04543290035677495,-0.2826896918570273,-0.9038851642181298,0.3178270242001548,3.0193093493623797,-0.6438075054130218,-0.6470515811144102
9645,955459.4167467563,955459.4421738334,Right headphone,0.02694360725581646,0.09525299072265625,0.10586703568696976,0.0973372757434845,0.5992410778999329,0.7946290373802185,-0.04179368168115616,0.080238938331604,0.06488439440727234,0.04567355059556831,-0.2835957665378993,-0.9038185890822693,0.3171739441499931,3.019706037382884,-0.6425527766187396,-0.6487015710714912
9646,955459.4367467563,955459.4659879584,Right headphone,0.027423324063420296,0.07569156587123871,0.08655761182308197,0.09660926461219788,0.5987135767936707,0.7951154708862305,-0.007509360555559397,0.09189935773611069,0.04167197272181511,0.04620962072397712,-0.2843733186869511,-0.903708818767225,0.3167126176925451,3.020682056858937,-0.641893998712693,-0.6499669804732088
9647,955459.4567467563,955459.4833075834,Right headphone,0.028498047962784767,0.06478506326675415,0.07918016612529755,0.09552457928657532,0.5987436771392822,0.7952237725257874,0.02665853500366211,0.10112850368022919,0.02113110013306141,0.04698198646939267,-0.2850183761179915,-0.9035355448983357,0.31651337587568684,3.0220427413616346,-0.6419315695181419,-0.6509243489884315
9648,955459.4767467564,955459.4994859584,Right headphone,0.03149641305208206,0.055105824023485184,0.07185710221529007,0.09380341321229935,0.5994048118591309,0.7949306964874268,0.05605897679924965,0.11678710579872131,-0.010967947542667389,0.04808984122512571,-0.285373800175878,-0.903342239860198,0.3165785978429224,3.0241339779121965,-0.6427573172031554,-0.651119243031038
9649,955459.4967467564,955459.5233007084,Right headphone,0.03514833748340607,0.04478710517287254,0.06064339354634285,0.09139040112495422,0.6006178855895996,0.7942959070205688,0.08090747147798538,0.13245269656181335,-0.04877752065658569,0.0495425535646923,-0.28542789302993116,-0.9031494575036227,0.31685577069984755,3.02703816748343,-0.6442736929368584,-0.6504776074376312
9650,955459.5167467564,955459.5396440417,Right headphone,0.03644489496946335,0.04047439992427826,0.053871285170316696,0.0885278508067131,0.6022056937217712,0.7934174537658691,0.10129618644714355,0.13594044744968414,-0.06282630562782288,0.05122621620718914,-0.28529453582080344,-0.9029484066104355,0.31728088171973917,3.03047451639791,-0.6462610341695093,-0.6493096767287415
9651,955459.5367467564,955459.5642962084,Right headphone,0.039365023374557495,0.03994039446115494,0.048020653426647186,0.08566035330295563,0.6040134429931641,0.7923571467399597,0.11285828799009323,0.12836015224456787,-0.06426507979631424,0.05293541861054028,-0.2851029430550332,-0.9027153184852512,0.31783514457427353,3.0339027847028883,-0.6485273470828189,-0.648056771547554
9652,955459.5567467564,955459.5850937084,Right headphone,0.04092375561594963,0.040880437940359116,0.038959257304668427,0.08303401619195938,0.6059514284133911,0.7911564707756042,0.11524929106235504,0.10097414255142212,-0.04730222374200821,0.054537551655652834,-0.2848737819107516,-0.9024551147804849,0.31850823715466026,3.037022924433984,-0.6509613141852797,-0.6468510888057721
9653,955459.5767467564,955459.6027760834,Right headphone,0.03660716488957405,0.0415349006652832,0.030666155740618706,0.08144804835319519,0.6078712344169617,0.7898475527763367,0.11357206106185913,0.042313266545534134,-0.005270631518214941,0.055661096786567485,-0.28476626622078643,-0.9021263920857451,0.31934019262242674,3.0388373039109324,-0.6533768894795916,-0.6463681429577879
9654,955459.5967467565,955459.637471375,Right headphone,0.031832996755838394,0.04471370205283165,0.02912435494363308,0.08168459683656693,0.609620988368988,0.7884734272956848,0.10496213287115097,-0.02621019072830677,0.0485554113984108,0.055946193813485784,-0.28495106228117584,-0.9016871331886281,0.3203645134498294,3.038362652730345,-0.6555823533552484,-0.6473087519528812
9655,955459.6167467565,955459.6597376667,Right headphone,0.031463101506233215,0.048013363033533096,0.030526649206876755,0.08326667547225952,0.6110406517982483,0.787207841873169,0.07935541123151779,-0.07088019698858261,0.0711282268166542,0.05554877399485282,-0.28528320556858744,-0.90123109883346,0.32141943044329474,3.0362099621848735,-0.6573745265553187,-0.6491087425865747
9656,955459.6367467565,955459.6608832917,Right headphone,0.036864735186100006,0.051461514085531235,0.03602646291255951,0.08517908304929733,0.6118772029876709,0.7863526940345764,0.03744926676154137,-0.07745584100484848,0.038909200578927994,0.05483955039096277,-0.2855183575275933,-0.9009193515382019,0.3222051972036216,3.033691790541959,-0.6584317476637067,-0.6507068940603057
